subnum,block,trial,direction,stim,offset,fixationstart,delaytime,promptstart,arrowstart,maskstart,rt,corresp,resp,corr,bivalentcorr
204-3-3,P,0,-1,D,1,5764,3500,9269,9777,9777,540,<down>,<down>,1,1
204-3-3,P,0,1,L,1,10335,3000,13341,13847,13848,581,<left>,<left>,1,1
204-3-3,P,0,-1,D,1,14455,2500,16961,17467,17468,485,<down>,<down>,1,1
204-3-3,P,0,1,L,1,17974,3500,21479,21987,21987,452,<left>,<left>,1,1
204-3-3,P,0,-1,D,2,22467,1500,23973,24479,24479,467,<down>,<down>,1,1
204-3-3,P,0,1,D,1,24972,2000,26977,27484,27484,505,<down>,<down>,1,1
204-3-3,P,0,1,D,1,28013,1750,29768,30274,30275,408,<down>,<down>,1,1
204-3-3,P,0,1,D,1,30708,1750,32464,32972,32972,479,<down>,<down>,1,1
204-3-3,P,0,-1,D,1,35751,2500,38256,38462,38463,474,<down>,<down>,1,1
204-3-3,P,0,-1,R,2,38955,3500,42460,42666,42666,633,<right>,<right>,1,1
204-3-3,P,0,1,L,1,43311,2500,45817,46024,46024,614,<left>,<left>,1,1
204-3-3,P,0,1,L,2,46647,3000,49652,49860,49861,632,<left>,<left>,1,1
204-3-3,P,0,-1,U,1,50503,2250,52759,52965,52965,622,<up>,<up>,1,1
204-3-3,P,0,1,D,1,53600,2000,55605,55811,55811,522,<down>,<down>,1,1
204-3-3,P,0,1,U,2,56347,1750,58103,58309,58310,661,<up>,<up>,1,1
204-3-3,P,0,1,D,1,58982,2500,61488,61694,61695,507,<down>,<down>,1,1
204-3-3,T,1,-1,R,2,64328,3000,67334,67541,67541,583,<right>,<right>,1,1
204-3-3,T,2,-1,R,1,68136,3500,71639,71845,71846,537,<right>,<right>,1,1
204-3-3,T,3,1,D,2,72396,2000,74401,74607,74608,596,<down>,<up>,0,1
204-3-3,T,4,1,R,1,75216,1750,76971,77177,77178,507,<right>,<right>,1,1
204-3-3,T,5,-1,U,2,77696,3250,80952,81158,81159,715,<up>,<up>,1,1
204-3-3,T,6,-1,U,1,81891,1750,83647,83853,83853,477,<up>,<up>,1,1
204-3-3,T,7,1,U,2,84349,2500,86855,87061,87061,641,<up>,<up>,1,1
204-3-3,T,8,-1,L,2,87714,1500,89219,89425,89425,772,<left>,<left>,1,1
204-3-3,T,9,-1,U,2,90213,1750,91969,92175,92175,666,<up>,<up>,1,1
204-3-3,T,10,-1,R,2,92854,2750,95610,95816,95816,597,<right>,<right>,1,1
204-3-3,T,11,-1,R,2,96423,1500,97928,98134,98134,501,<right>,<right>,1,1
204-3-3,T,12,-1,L,1,98647,2000,100652,100858,100859,418,<left>,<left>,1,1
204-3-3,T,13,1,D,2,101291,1750,103046,103255,103255,710,<down>,<down>,1,1
204-3-3,T,14,1,D,1,103979,2250,106234,106437,106437,536,<down>,<down>,1,1
204-3-3,T,15,-1,R,2,106985,2500,109491,109698,109698,668,<right>,<right>,1,1
204-3-3,T,16,-1,D,1,110379,2500,112885,113092,113092,538,<down>,<down>,1,1
204-3-3,T,17,-1,U,1,113647,2500,116151,116358,116358,431,<up>,<up>,1,1
204-3-3,T,18,-1,R,1,116799,3000,119805,120011,120012,458,<right>,<right>,1,1
204-3-3,T,19,-1,D,1,120496,3000,123501,123707,123708,484,<down>,<down>,1,1
204-3-3,T,20,1,U,1,124209,2250,126465,126671,126672,566,<up>,<up>,1,1
204-3-3,T,21,-1,R,1,127250,1500,128755,128961,128961,515,<right>,<right>,1,1
204-3-3,T,22,-1,U,1,129495,1750,131251,131457,131457,442,<up>,<up>,1,1
204-3-3,T,23,-1,R,1,131917,2500,134422,134628,134629,451,<right>,<right>,1,1
204-3-3,T,24,-1,R,1,135094,3500,138599,138806,138807,375,<right>,<right>,1,1
204-3-3,T,25,-1,D,2,139200,1750,140956,141162,141163,669,<down>,<down>,1,1
204-3-3,T,26,-1,L,2,141848,1750,143604,143810,143811,574,<left>,<left>,1,1
204-3-3,T,27,-1,L,2,144406,2750,147162,147368,147369,576,<left>,<left>,1,1
204-3-3,T,28,1,R,1,147957,2750,150712,150918,150918,520,<right>,<right>,1,1
204-3-3,T,29,-1,L,2,151454,2500,153960,154167,154167,597,<left>,<left>,1,1
204-3-3,T,30,1,U,1,154778,1500,156283,156489,156489,547,<up>,<up>,1,1
204-3-3,T,31,-1,R,1,157049,3250,160305,160511,160512,419,<right>,<left>,0,1
204-3-3,T,32,1,R,1,160950,2250,163205,163411,163412,541,<right>,<right>,1,1
204-3-3,T,33,-1,L,1,163967,3250,167223,167429,167430,558,<left>,<left>,1,1
204-3-3,T,34,1,L,1,167998,3250,171253,171461,171462,541,<left>,<left>,1,1
204-3-3,T,35,1,U,2,172016,2500,174521,174728,174728,625,<up>,<up>,1,1
204-3-3,T,36,-1,D,2,175364,2000,177369,177577,177577,523,<down>,<down>,1,1
204-3-3,T,37,1,U,1,178111,2250,180366,180573,180573,618,<up>,<up>,1,1
204-3-3,T,38,-1,L,1,181210,1750,182965,183172,183172,530,<left>,<left>,1,1
204-3-3,T,39,-1,D,2,183718,3250,186975,187181,187182,747,<down>,<down>,1,1
204-3-3,T,40,-1,L,1,187946,2250,190202,190408,190408,538,<left>,<left>,1,1
204-3-3,T,41,1,U,1,190960,1750,192716,192923,192924,484,<up>,<up>,1,1
204-3-3,T,42,1,L,2,193421,2500,195927,196134,196134,662,<left>,<left>,1,1
204-3-3,T,43,-1,D,1,196805,1500,198311,198518,198518,484,<down>,<down>,1,1
204-3-3,T,44,-1,L,1,199015,3000,202021,202228,202229,601,<left>,<left>,1,1
204-3-3,T,45,-1,D,1,202843,2250,205098,205305,205305,518,<down>,<down>,1,1
204-3-3,T,46,-1,D,2,205836,2000,207842,208049,208050,808,<down>,<down>,1,1
204-3-3,T,47,-1,L,1,208870,3500,212377,212584,212584,558,<left>,<left>,1,1
204-3-3,T,48,1,U,1,213153,1750,214908,215115,215115,554,<up>,<up>,1,1
204-3-3,T,49,-1,D,2,215681,2750,218436,218642,218643,614,<down>,<down>,1,1
204-3-3,T,50,-1,U,2,219273,2250,221527,221734,221734,670,<up>,<up>,1,1
