subnum,stimtype,block,trialtype,trial,condition,stim,dim1,dim2,time0,resp1,rt1,corr1,resp2,rt2,corr2,tooslow
208-4-3,4,1,PRACTICE,-25,1,2,0,1,6970,2,476,1,NA,0,0,0
208-4-3,4,1,PRACTICE,-24,1,4,0,0,8529,2,430,1,NA,0,0,0
208-4-3,4,1,PRACTICE,-23,1,3,1,0,9886,1,438,1,NA,0,0,0
208-4-3,4,1,PRACTICE,-22,1,1,1,1,11653,1,366,1,NA,0,0,0
208-4-3,4,1,PRACTICE,-21,1,1,1,1,13154,1,378,1,NA,0,0,0
208-4-3,4,1,PRACTICE,-20,1,4,0,0,14546,2,370,1,NA,0,0,0
208-4-3,4,1,PRACTICE,-19,1,3,1,0,16111,1,883,1,NA,0,0,0
208-4-3,4,1,PRACTICE,-18,1,2,0,1,18304,2,442,1,NA,0,0,0
208-4-3,4,1,TEST,1,1,3,1,0,19722,1,654,1,NA,0,0,0
208-4-3,4,1,TEST,2,1,2,0,1,21557,2,700,1,NA,0,0,0
208-4-3,4,1,TEST,3,1,1,1,1,23277,1,294,1,NA,0,0,0
208-4-3,4,1,TEST,4,1,4,0,0,24433,2,402,1,NA,0,0,0
208-4-3,4,1,TEST,5,1,3,1,0,25688,1,359,1,NA,0,0,0
208-4-3,4,1,TEST,6,1,1,1,1,27211,1,434,1,NA,0,0,0
208-4-3,4,1,TEST,7,1,2,0,1,28767,2,454,1,NA,0,0,0
208-4-3,4,1,TEST,8,1,4,0,0,30290,2,422,1,NA,0,0,0
208-4-3,4,1,TEST,9,1,1,1,1,31668,1,463,1,NA,0,0,0
208-4-3,4,1,TEST,10,1,4,0,0,33364,2,323,1,NA,0,0,0
208-4-3,4,1,TEST,11,1,3,1,0,34710,1,332,1,NA,0,0,0
208-4-3,4,1,TEST,12,1,2,0,1,36330,2,416,1,NA,0,0,0
208-4-3,4,1,TEST,13,1,1,1,1,38033,1,302,1,NA,0,0,0
208-4-3,4,1,TEST,14,1,4,0,0,39341,2,340,1,NA,0,0,0
208-4-3,4,1,TEST,15,1,3,1,0,40907,1,315,1,NA,0,0,0
208-4-3,4,1,TEST,16,1,2,0,1,42343,2,358,1,NA,0,0,0
208-4-3,4,1,TEST,17,1,3,1,0,43655,1,371,1,NA,0,0,0
208-4-3,4,1,TEST,18,1,4,0,0,45174,2,338,1,NA,0,0,0
208-4-3,4,1,TEST,19,1,1,1,1,46546,1,293,1,NA,0,0,0
208-4-3,4,1,TEST,20,1,2,0,1,47851,2,310,1,NA,0,0,0
208-4-3,4,1,TEST,21,1,1,1,1,49374,1,328,1,NA,0,0,0
208-4-3,4,1,TEST,22,1,4,0,0,51000,2,281,1,NA,0,0,0
208-4-3,4,1,TEST,23,1,3,1,0,52328,1,342,1,NA,0,0,0
208-4-3,4,1,TEST,24,1,2,0,1,53573,1,338,0,NA,0,0,0
208-4-3,4,1,TEST,25,1,3,1,0,55303,1,320,1,NA,0,0,0
208-4-3,4,2,PRACTICE,-25,2,2,0,1,60338,NA,0,0,0,578,0,0
208-4-3,4,2,PRACTICE,-24,2,4,0,0,62459,NA,0,0,0,350,1,0
208-4-3,4,2,PRACTICE,-23,2,3,1,0,63982,NA,0,0,9,377,0,0
208-4-3,4,2,PRACTICE,-22,2,1,1,1,65988,NA,0,0,9,401,1,0
208-4-3,4,2,PRACTICE,-21,2,2,0,1,67276,NA,0,0,9,396,1,0
208-4-3,4,2,PRACTICE,-20,2,4,0,0,68609,NA,0,0,0,365,1,0
208-4-3,4,2,PRACTICE,-19,2,3,1,0,69944,NA,0,0,0,341,1,0
208-4-3,4,2,PRACTICE,-18,2,1,1,1,71394,NA,0,0,9,372,1,0
208-4-3,4,2,TEST,1,2,1,1,1,73025,NA,0,0,9,383,1,0
208-4-3,4,2,TEST,2,2,2,0,1,74458,NA,0,0,9,417,1,0
208-4-3,4,2,TEST,3,2,4,0,0,75793,NA,0,0,0,519,1,0
208-4-3,4,2,TEST,4,2,3,1,0,77320,NA,0,0,0,416,1,0
208-4-3,4,2,TEST,5,2,1,1,1,78942,NA,0,0,9,358,1,0
208-4-3,4,2,TEST,6,2,4,0,0,80581,NA,0,0,0,491,1,0
208-4-3,4,2,TEST,7,2,3,1,0,82073,NA,0,0,0,436,1,0
208-4-3,4,2,TEST,8,2,2,0,1,83457,NA,0,0,9,539,1,0
208-4-3,4,2,TEST,9,2,4,0,0,85302,NA,0,0,0,468,1,0
208-4-3,4,2,TEST,10,2,3,1,0,86618,NA,0,0,0,368,1,0
208-4-3,4,2,TEST,11,2,2,0,1,87975,NA,0,0,9,369,1,0
208-4-3,4,2,TEST,12,2,1,1,1,89461,NA,0,0,9,696,1,0
208-4-3,4,2,TEST,13,2,3,1,0,91426,NA,0,0,0,360,1,0
208-4-3,4,2,TEST,14,2,4,0,0,92724,NA,0,0,0,487,1,0
208-4-3,4,2,TEST,15,2,2,0,1,94230,NA,0,0,9,346,1,0
208-4-3,4,2,TEST,16,2,1,1,1,95849,NA,0,0,9,386,1,0
208-4-3,4,2,TEST,17,2,4,0,0,97298,NA,0,0,0,296,1,0
208-4-3,4,2,TEST,18,2,1,1,1,98853,NA,0,0,9,371,1,0
208-4-3,4,2,TEST,19,2,2,0,1,100231,NA,0,0,9,350,1,0
208-4-3,4,2,TEST,20,2,3,1,0,101435,NA,0,0,0,522,1,0
208-4-3,4,2,TEST,21,2,2,0,1,103030,NA,0,0,9,369,1,0
208-4-3,4,2,TEST,22,2,3,1,0,104653,NA,0,0,0,388,1,0
208-4-3,4,2,TEST,23,2,4,0,0,106062,NA,0,0,0,480,1,0
208-4-3,4,2,TEST,24,2,1,1,1,107684,NA,0,0,9,430,1,0
208-4-3,4,2,TEST,25,2,2,0,1,109365,NA,0,0,9,357,1,0
208-4-3,4,3,PRACTICE,-25,3,4,0,0,112900,2,528,1,0,520,1,0
208-4-3,4,3,PRACTICE,-24,3,2,0,1,114289,2,522,1,0,506,0,0
208-4-3,4,3,PRACTICE,-23,3,3,1,0,116179,1,409,1,0,405,1,0
208-4-3,4,3,PRACTICE,-22,3,1,1,1,117646,1,406,1,9,412,1,0
208-4-3,4,3,PRACTICE,-21,3,1,1,1,119036,1,486,1,9,534,1,0
208-4-3,4,3,PRACTICE,-20,3,2,0,1,120679,2,357,1,9,361,1,0
208-4-3,4,3,PRACTICE,-19,3,4,0,0,122205,1,317,0,0,301,1,0
208-4-3,4,3,PRACTICE,-18,3,3,1,0,124152,1,518,1,0,526,1,0
208-4-3,4,3,TEST,1,3,1,1,1,125810,1,444,1,9,461,1,0
208-4-3,4,3,TEST,2,3,3,1,0,127603,2,397,0,0,392,1,0
208-4-3,4,3,TEST,3,3,2,0,1,129706,2,492,1,9,489,1,0
208-4-3,4,3,TEST,4,3,4,0,0,131319,2,535,1,0,539,1,0
208-4-3,4,3,TEST,5,3,3,1,0,133016,1,406,1,0,402,1,0
208-4-3,4,3,TEST,6,3,2,0,1,134699,2,462,1,9,459,1,0
208-4-3,4,3,TEST,7,3,4,0,0,136437,2,531,1,0,447,1,0
208-4-3,4,3,TEST,8,3,1,1,1,138247,1,343,1,9,360,1,0
208-4-3,4,3,TEST,9,3,4,0,0,139850,2,331,1,0,327,1,0
208-4-3,4,3,TEST,10,3,2,0,1,141045,2,391,1,9,395,1,0
208-4-3,4,3,TEST,11,3,1,1,1,142335,1,295,1,9,308,1,0
208-4-3,4,3,TEST,12,3,3,1,0,143721,1,552,1,0,544,1,0
208-4-3,4,3,TEST,13,3,1,1,1,145379,1,474,1,9,496,1,0
208-4-3,4,3,TEST,14,3,4,0,0,147177,2,327,1,0,317,1,0
208-4-3,4,3,TEST,15,3,2,0,1,148643,2,471,1,9,494,1,0
208-4-3,4,3,TEST,16,3,3,1,0,150456,1,354,1,0,360,1,0
208-4-3,4,3,TEST,17,3,2,0,1,151815,2,330,1,9,334,1,0
208-4-3,4,3,TEST,18,3,4,0,0,153185,2,428,1,0,422,1,0
208-4-3,4,3,TEST,19,3,1,1,1,154844,1,302,1,9,306,1,0
208-4-3,4,3,TEST,20,3,3,1,0,156067,1,391,1,0,383,1,0
208-4-3,4,3,TEST,21,3,1,1,1,157695,2,361,0,9,344,1,0
208-4-3,4,3,TEST,22,3,4,0,0,159395,2,322,1,0,316,1,0
208-4-3,4,3,TEST,23,3,3,1,0,160770,1,410,1,0,406,1,0
208-4-3,4,3,TEST,24,3,2,0,1,162090,2,460,1,9,468,1,0
208-4-3,4,3,TEST,25,3,3,1,0,163408,1,340,1,0,316,1,0
