subnum,stimtype,block,trialtype,trial,condition,stim,dim1,dim2,time0,resp1,rt1,corr1,resp2,rt2,corr2,tooslow
205-3-2,4,1,PRACTICE,-25,1,4,0,0,9378,2,803,1,NA,0,0,0
205-3-2,4,1,PRACTICE,-24,1,1,1,1,11425,1,420,1,NA,0,0,0
205-3-2,4,1,PRACTICE,-23,1,3,1,0,12781,1,478,1,NA,0,0,0
205-3-2,4,1,PRACTICE,-22,1,2,0,1,14538,2,353,1,NA,0,0,0
205-3-2,4,1,PRACTICE,-21,1,4,0,0,15771,2,370,1,NA,0,0,0
205-3-2,4,1,PRACTICE,-20,1,1,1,1,17468,1,381,1,NA,0,0,0
205-3-2,4,1,PRACTICE,-19,1,3,1,0,18940,1,391,1,NA,0,0,0
205-3-2,4,1,PRACTICE,-18,1,2,0,1,20491,2,410,1,NA,0,0,0
205-3-2,4,1,TEST,1,1,1,1,1,22064,1,416,1,NA,0,0,0
205-3-2,4,1,TEST,2,1,2,0,1,23414,2,450,1,NA,0,0,0
205-3-2,4,1,TEST,3,1,3,1,0,25143,1,386,1,NA,0,0,0
205-3-2,4,1,TEST,4,1,4,0,0,26625,2,318,1,NA,0,0,0
205-3-2,4,1,TEST,5,1,2,0,1,27879,2,470,1,NA,0,0,0
205-3-2,4,1,TEST,6,1,4,0,0,29519,2,387,1,NA,0,0,0
205-3-2,4,1,TEST,7,1,1,1,1,30918,1,431,1,NA,0,0,0
205-3-2,4,1,TEST,8,1,3,1,0,32589,1,414,1,NA,0,0,0
205-3-2,4,1,TEST,9,1,4,0,0,33915,2,395,1,NA,0,0,0
205-3-2,4,1,TEST,10,1,2,0,1,35469,2,394,1,NA,0,0,0
205-3-2,4,1,TEST,11,1,1,1,1,36795,1,396,1,NA,0,0,0
205-3-2,4,1,TEST,12,1,3,1,0,38141,1,429,1,NA,0,0,0
205-3-2,4,1,TEST,13,1,1,1,1,39559,1,439,1,NA,0,0,0
205-3-2,4,1,TEST,14,1,4,0,0,41050,2,414,1,NA,0,0,0
205-3-2,4,1,TEST,15,1,2,0,1,42753,2,362,1,NA,0,0,0
205-3-2,4,1,TEST,16,1,3,1,0,44219,1,394,1,NA,0,0,0
205-3-2,4,1,TEST,17,1,1,1,1,45958,1,344,1,NA,0,0,0
205-3-2,4,1,TEST,18,1,2,0,1,47363,2,424,1,NA,0,0,0
205-3-2,4,1,TEST,19,1,4,0,0,48695,2,358,1,NA,0,0,0
205-3-2,4,1,TEST,20,1,3,1,0,50101,1,452,1,NA,0,0,0
205-3-2,4,1,TEST,21,1,2,0,1,51749,2,473,1,NA,0,0,0
205-3-2,4,1,TEST,22,1,3,1,0,53257,1,386,1,NA,0,0,0
205-3-2,4,1,TEST,23,1,1,1,1,54715,1,546,1,NA,0,0,0
205-3-2,4,1,TEST,24,1,4,0,0,56556,2,391,1,NA,0,0,0
205-3-2,4,1,TEST,25,1,1,1,1,58215,1,634,1,NA,0,0,0
205-3-2,4,2,PRACTICE,-25,2,2,0,1,63396,NA,0,0,0,444,0,0
205-3-2,4,2,PRACTICE,-24,2,4,0,0,65645,NA,0,0,0,472,1,0
205-3-2,4,2,PRACTICE,-23,2,1,1,1,66963,NA,0,0,9,390,1,0
205-3-2,4,2,PRACTICE,-22,2,3,1,0,68301,NA,0,0,0,348,1,0
205-3-2,4,2,PRACTICE,-21,2,2,0,1,69727,NA,0,0,9,347,1,0
205-3-2,4,2,PRACTICE,-20,2,3,1,0,71370,NA,0,0,0,373,1,0
205-3-2,4,2,PRACTICE,-19,2,1,1,1,73065,NA,0,0,9,363,1,0
205-3-2,4,2,PRACTICE,-18,2,4,0,0,74442,NA,0,0,0,393,1,0
205-3-2,4,2,TEST,1,2,4,0,0,75789,NA,0,0,0,436,1,0
205-3-2,4,2,TEST,2,2,2,0,1,77067,NA,0,0,9,503,1,0
205-3-2,4,2,TEST,3,2,1,1,1,78699,NA,0,0,9,358,1,0
205-3-2,4,2,TEST,4,2,3,1,0,80036,NA,0,0,0,639,1,0
205-3-2,4,2,TEST,5,2,2,0,1,81955,NA,0,0,9,381,1,0
205-3-2,4,2,TEST,6,2,4,0,0,83395,NA,0,0,0,370,1,0
205-3-2,4,2,TEST,7,2,3,1,0,85010,NA,0,0,0,485,1,0
205-3-2,4,2,TEST,8,2,1,1,1,86707,NA,0,0,9,382,1,0
205-3-2,4,2,TEST,9,2,3,1,0,87952,NA,0,0,0,467,1,0
205-3-2,4,2,TEST,10,2,4,0,0,89495,NA,0,0,0,440,1,0
205-3-2,4,2,TEST,11,2,2,0,1,90910,NA,0,0,9,408,1,0
205-3-2,4,2,TEST,12,2,1,1,1,92182,NA,0,0,9,462,1,0
205-3-2,4,2,TEST,13,2,4,0,0,93742,NA,0,0,0,349,1,0
205-3-2,4,2,TEST,14,2,3,1,0,95085,NA,0,0,0,475,1,0
205-3-2,4,2,TEST,15,2,2,0,1,96498,NA,0,0,9,386,1,0
205-3-2,4,2,TEST,16,2,1,1,1,98119,NA,0,0,9,435,1,0
205-3-2,4,2,TEST,17,2,2,0,1,99661,NA,0,0,9,468,1,0
205-3-2,4,2,TEST,18,2,3,1,0,101158,NA,0,0,0,453,1,0
205-3-2,4,2,TEST,19,2,4,0,0,102466,NA,0,0,0,500,1,0
205-3-2,4,2,TEST,20,2,1,1,1,104127,NA,0,0,9,458,1,0
205-3-2,4,2,TEST,21,2,2,0,1,105542,NA,0,0,9,427,1,0
205-3-2,4,2,TEST,22,2,1,1,1,106999,NA,0,0,9,356,1,0
205-3-2,4,2,TEST,23,2,3,1,0,108270,NA,0,0,0,429,1,0
205-3-2,4,2,TEST,24,2,4,0,0,109919,NA,0,0,0,400,1,0
205-3-2,4,2,TEST,25,2,2,0,1,111181,NA,0,0,9,411,1,0
205-3-2,4,3,PRACTICE,-25,3,4,0,0,117151,2,575,1,0,567,1,0
205-3-2,4,3,PRACTICE,-24,3,1,1,1,118617,1,360,1,9,396,1,0
205-3-2,4,3,PRACTICE,-23,3,2,0,1,120311,2,452,1,9,461,1,0
205-3-2,4,3,PRACTICE,-22,3,3,1,0,122037,1,448,1,0,456,1,0
205-3-2,4,3,PRACTICE,-21,3,2,0,1,123456,2,395,1,9,423,1,0
205-3-2,4,3,PRACTICE,-20,3,1,1,1,125182,1,538,1,9,534,1,0
205-3-2,4,3,PRACTICE,-19,3,4,0,0,126703,2,399,1,0,396,1,0
205-3-2,4,3,PRACTICE,-18,3,3,1,0,128157,1,568,1,0,558,1,0
205-3-2,4,3,TEST,1,3,2,0,1,129913,2,549,1,9,544,1,0
205-3-2,4,3,TEST,2,3,3,1,0,131481,1,480,1,0,466,1,0
205-3-2,4,3,TEST,3,3,1,1,1,133287,1,456,1,9,460,1,0
205-3-2,4,3,TEST,4,3,4,0,0,135056,2,458,1,0,462,1,0
205-3-2,4,3,TEST,5,3,1,1,1,136497,1,459,1,9,464,1,0
205-3-2,4,3,TEST,6,3,2,0,1,138286,2,853,1,9,865,1,0
205-3-2,4,3,TEST,7,3,3,1,0,140028,1,507,1,0,490,1,0
205-3-2,4,3,TEST,8,3,4,0,0,141783,2,476,1,0,480,1,0
205-3-2,4,3,TEST,9,3,2,0,1,143545,2,573,1,9,578,1,0
205-3-2,4,3,TEST,10,3,3,1,0,145452,1,437,1,0,432,1,0
205-3-2,4,3,TEST,11,3,1,1,1,147130,1,531,1,9,518,1,0
205-3-2,4,3,TEST,12,3,4,0,0,148846,2,409,1,0,406,1,0
205-3-2,4,3,TEST,13,3,1,1,1,150354,1,430,1,9,420,1,0
205-3-2,4,3,TEST,14,3,3,1,0,151795,1,534,1,0,517,1,0
205-3-2,4,3,TEST,15,3,2,0,1,153644,2,518,1,9,522,1,0
205-3-2,4,3,TEST,16,3,4,0,0,155205,2,476,1,0,461,1,0
205-3-2,4,3,TEST,17,3,2,0,1,156660,2,1010,1,9,1026,1,0
205-3-2,4,3,TEST,18,3,4,0,0,158682,2,518,1,0,492,1,0
205-3-2,4,3,TEST,19,3,1,1,1,160345,1,488,1,9,456,1,0
205-3-2,4,3,TEST,20,3,3,1,0,162003,1,466,1,0,426,1,0
205-3-2,4,3,TEST,21,3,1,1,1,163592,1,541,1,9,530,1,0
205-3-2,4,3,TEST,22,3,4,0,0,165212,2,428,1,0,424,1,0
205-3-2,4,3,TEST,23,3,2,0,1,166534,2,536,1,9,517,1,0
205-3-2,4,3,TEST,24,3,3,1,0,168348,1,517,1,0,492,1,0
205-3-2,4,3,TEST,25,3,1,1,1,170125,1,490,1,9,483,1,0
