subnum,stimtype,block,trialtype,trial,condition,stim,dim1,dim2,time0,resp1,rt1,corr1,resp2,rt2,corr2,tooslow
206-4-1,4,1,PRACTICE,-25,1,1,1,1,7637,1,363,1,NA,0,0,0
206-4-1,4,1,PRACTICE,-24,1,4,0,0,9233,2,317,1,NA,0,0,0
206-4-1,4,1,PRACTICE,-23,1,3,1,0,10418,1,328,1,NA,0,0,0
206-4-1,4,1,PRACTICE,-22,1,2,0,1,11886,2,291,1,NA,0,0,0
206-4-1,4,1,PRACTICE,-21,1,2,0,1,13278,2,389,1,NA,0,0,0
206-4-1,4,1,PRACTICE,-20,1,4,0,0,14863,2,322,1,NA,0,0,0
206-4-1,4,1,PRACTICE,-19,1,1,1,1,16496,1,312,1,NA,0,0,0
206-4-1,4,1,PRACTICE,-18,1,3,1,0,17814,1,354,1,NA,0,0,0
206-4-1,4,1,TEST,1,1,1,1,1,19476,1,299,1,NA,0,0,0
206-4-1,4,1,TEST,2,1,3,1,0,20696,1,350,1,NA,0,0,0
206-4-1,4,1,TEST,3,1,2,0,1,22356,2,328,1,NA,0,0,0
206-4-1,4,1,TEST,4,1,4,0,0,23610,2,384,1,NA,0,0,0
206-4-1,4,1,TEST,5,1,3,1,0,25140,1,307,1,NA,0,0,0
206-4-1,4,1,TEST,6,1,2,0,1,26688,2,273,1,NA,0,0,0
206-4-1,4,1,TEST,7,1,1,1,1,28035,1,356,1,NA,0,0,0
206-4-1,4,1,TEST,8,1,4,0,0,29661,2,244,1,NA,0,0,0
206-4-1,4,1,TEST,9,1,2,0,1,31033,2,367,1,NA,0,0,0
206-4-1,4,1,TEST,10,1,1,1,1,32307,1,334,1,NA,0,0,0
206-4-1,4,1,TEST,11,1,3,1,0,33848,2,278,0,NA,0,0,0
206-4-1,4,1,TEST,12,1,4,0,0,35671,2,329,1,NA,0,0,0
206-4-1,4,1,TEST,13,1,3,1,0,37135,1,366,1,NA,0,0,0
206-4-1,4,1,TEST,14,1,4,0,0,38392,2,392,1,NA,0,0,0
206-4-1,4,1,TEST,15,1,1,1,1,40030,1,325,1,NA,0,0,0
206-4-1,4,1,TEST,16,1,2,0,1,41332,2,330,1,NA,0,0,0
206-4-1,4,1,TEST,17,1,1,1,1,42839,1,296,1,NA,0,0,0
206-4-1,4,1,TEST,18,1,4,0,0,43983,2,347,1,NA,0,0,0
206-4-1,4,1,TEST,19,1,3,1,0,45224,1,281,1,NA,0,0,0
206-4-1,4,1,TEST,20,1,2,0,1,46703,2,293,1,NA,0,0,0
206-4-1,4,1,TEST,21,1,1,1,1,47889,1,302,1,NA,0,0,0
206-4-1,4,1,TEST,22,1,2,0,1,49157,2,303,1,NA,0,0,0
206-4-1,4,1,TEST,23,1,4,0,0,50504,2,324,1,NA,0,0,0
206-4-1,4,1,TEST,24,1,3,1,0,51766,1,296,1,NA,0,0,0
206-4-1,4,1,TEST,25,1,4,0,0,53139,2,285,1,NA,0,0,0
206-4-1,4,2,PRACTICE,-25,2,4,0,0,57730,NA,0,0,0,490,1,0
206-4-1,4,2,PRACTICE,-24,2,2,0,1,59152,NA,0,0,9,383,1,0
206-4-1,4,2,PRACTICE,-23,2,3,1,0,60419,NA,0,0,0,342,1,0
206-4-1,4,2,PRACTICE,-22,2,1,1,1,61858,NA,0,0,9,351,1,0
206-4-1,4,2,PRACTICE,-21,2,2,0,1,63305,NA,0,0,9,322,1,0
206-4-1,4,2,PRACTICE,-20,2,1,1,1,64533,NA,0,0,9,354,1,0
206-4-1,4,2,PRACTICE,-19,2,4,0,0,66089,NA,0,0,0,322,1,0
206-4-1,4,2,PRACTICE,-18,2,3,1,0,67407,NA,0,0,0,346,1,0
206-4-1,4,2,TEST,1,2,2,0,1,68979,NA,0,0,9,329,1,0
206-4-1,4,2,TEST,2,2,1,1,1,70338,NA,0,0,9,363,1,0
206-4-1,4,2,TEST,3,2,4,0,0,71592,NA,0,0,0,312,1,0
206-4-1,4,2,TEST,4,2,3,1,0,72859,NA,0,0,0,336,1,0
206-4-1,4,2,TEST,5,2,2,0,1,74395,NA,0,0,9,211,1,0
206-4-1,4,2,TEST,6,2,4,0,0,75916,NA,0,0,0,316,1,0
206-4-1,4,2,TEST,7,2,1,1,1,77508,NA,0,0,9,248,1,0
206-4-1,4,2,TEST,8,2,3,1,0,78969,NA,0,0,0,315,1,0
206-4-1,4,2,TEST,9,2,2,0,1,80231,NA,0,0,9,306,1,0
206-4-1,4,2,TEST,10,2,4,0,0,81745,NA,0,0,0,292,1,0
206-4-1,4,2,TEST,11,2,1,1,1,82932,NA,0,0,9,308,1,0
206-4-1,4,2,TEST,12,2,3,1,0,84370,NA,0,0,0,280,1,0
206-4-1,4,2,TEST,13,2,1,1,1,85830,NA,0,0,9,240,1,0
206-4-1,4,2,TEST,14,2,3,1,0,87162,NA,0,0,0,283,1,0
206-4-1,4,2,TEST,15,2,2,0,1,88378,NA,0,0,9,314,1,0
206-4-1,4,2,TEST,16,2,4,0,0,89728,NA,0,0,0,300,1,0
206-4-1,4,2,TEST,17,2,1,1,1,91060,NA,0,0,9,307,1,0
206-4-1,4,2,TEST,18,2,2,0,1,92689,NA,0,0,9,423,1,0
206-4-1,4,2,TEST,19,2,4,0,0,94426,NA,0,0,0,319,1,0
206-4-1,4,2,TEST,20,2,3,1,0,95690,NA,0,0,0,378,1,0
206-4-1,4,2,TEST,21,2,4,0,0,96951,NA,0,0,0,366,1,0
206-4-1,4,2,TEST,22,2,2,0,1,98644,NA,0,0,9,280,1,0
206-4-1,4,2,TEST,23,2,1,1,1,100162,NA,0,0,9,406,1,0
206-4-1,4,2,TEST,24,2,3,1,0,101608,NA,0,0,0,331,1,0
206-4-1,4,2,TEST,25,2,4,0,0,103057,NA,0,0,0,316,1,0
206-4-1,4,3,PRACTICE,-25,3,3,1,0,108095,1,428,1,0,425,1,0
206-4-1,4,3,PRACTICE,-24,3,2,0,1,109679,2,466,1,9,462,1,0
206-4-1,4,3,PRACTICE,-23,3,4,0,0,111085,2,432,1,0,412,1,0
206-4-1,4,3,PRACTICE,-22,3,1,1,1,112754,1,362,1,9,366,1,0
206-4-1,4,3,PRACTICE,-21,3,3,1,0,114321,1,388,1,0,384,1,0
206-4-1,4,3,PRACTICE,-20,3,4,0,0,115901,2,466,1,0,458,1,0
206-4-1,4,3,PRACTICE,-19,3,1,1,1,117298,1,421,1,9,437,1,0
206-4-1,4,3,PRACTICE,-18,3,2,0,1,118880,2,360,1,9,346,1,0
206-4-1,4,3,TEST,1,3,3,1,0,120521,1,476,1,0,466,1,0
206-4-1,4,3,TEST,2,3,1,1,1,122052,1,473,1,9,469,1,0
206-4-1,4,3,TEST,3,3,2,0,1,123413,2,449,1,9,443,1,0
206-4-1,4,3,TEST,4,3,4,0,0,125015,1,408,0,0,392,1,0
206-4-1,4,3,TEST,5,3,3,1,0,127058,1,561,1,0,546,1,0
206-4-1,4,3,TEST,6,3,2,0,1,128502,2,404,1,9,408,1,0
206-4-1,4,3,TEST,7,3,1,1,1,130113,1,443,1,9,435,1,0
206-4-1,4,3,TEST,8,3,4,0,0,131448,2,448,1,0,418,1,0
206-4-1,4,3,TEST,9,3,2,0,1,133039,2,372,1,9,344,1,0
206-4-1,4,3,TEST,10,3,3,1,0,134314,1,404,1,0,401,1,0
206-4-1,4,3,TEST,11,3,1,1,1,135591,1,442,1,9,436,1,0
206-4-1,4,3,TEST,12,3,4,0,0,137124,2,361,1,0,364,1,0
206-4-1,4,3,TEST,13,3,3,1,0,138681,1,449,1,0,455,1,0
206-4-1,4,3,TEST,14,3,2,0,1,140146,2,377,1,9,373,1,0
206-4-1,4,3,TEST,15,3,1,1,1,141837,1,432,1,9,428,1,0
206-4-1,4,3,TEST,16,3,4,0,0,143230,2,354,1,0,358,1,0
206-4-1,4,3,TEST,17,3,3,1,0,144621,1,479,1,0,474,1,0
206-4-1,4,3,TEST,18,3,4,0,0,146088,2,442,1,0,450,1,0
206-4-1,4,3,TEST,19,3,2,0,1,147803,2,396,1,9,404,1,0
206-4-1,4,3,TEST,20,3,1,1,1,149482,1,484,1,9,514,1,0
206-4-1,4,3,TEST,21,3,2,0,1,151155,2,462,1,9,458,1,0
206-4-1,4,3,TEST,22,3,4,0,0,152860,2,356,1,0,342,1,0
206-4-1,4,3,TEST,23,3,3,1,0,154361,1,412,1,0,378,1,0
206-4-1,4,3,TEST,24,3,1,1,1,155875,1,459,1,9,479,1,0
206-4-1,4,3,TEST,25,3,2,0,1,157444,2,389,1,9,385,1,0
