subnum,stimtype,block,trialtype,trial,condition,stim,dim1,dim2,time0,resp1,rt1,corr1,resp2,rt2,corr2,tooslow
107-4-4,4,1,PRACTICE,-25,1,2,0,1,6334,2,514,1,NA,0,0,0
107-4-4,4,1,PRACTICE,-24,1,3,1,0,8109,1,372,1,NA,0,0,0
107-4-4,4,1,PRACTICE,-23,1,1,1,1,9796,1,531,1,NA,0,0,0
107-4-4,4,1,PRACTICE,-22,1,4,0,0,11542,2,352,1,NA,0,0,0
107-4-4,4,1,PRACTICE,-21,1,2,0,1,13144,2,527,1,NA,0,0,0
107-4-4,4,1,PRACTICE,-20,1,4,0,0,14634,2,473,1,NA,0,0,0
107-4-4,4,1,PRACTICE,-19,1,1,1,1,16151,1,432,1,NA,0,0,0
107-4-4,4,1,PRACTICE,-18,1,3,1,0,17476,1,490,1,NA,0,0,0
107-4-4,4,1,TEST,1,1,3,1,0,19003,1,452,1,NA,0,0,0
107-4-4,4,1,TEST,2,1,2,0,1,20332,2,394,1,NA,0,0,0
107-4-4,4,1,TEST,3,1,4,0,0,21995,2,387,1,NA,0,0,0
107-4-4,4,1,TEST,4,1,1,1,1,23444,1,493,1,NA,0,0,0
107-4-4,4,1,TEST,5,1,2,0,1,24901,2,446,1,NA,0,0,0
107-4-4,4,1,TEST,6,1,4,0,0,26396,2,396,1,NA,0,0,0
107-4-4,4,1,TEST,7,1,3,1,0,28075,1,466,1,NA,0,0,0
107-4-4,4,1,TEST,8,1,1,1,1,29668,1,456,1,NA,0,0,0
107-4-4,4,1,TEST,9,1,4,0,0,31225,2,416,1,NA,0,0,0
107-4-4,4,1,TEST,10,1,1,1,1,32623,1,400,1,NA,0,0,0
107-4-4,4,1,TEST,11,1,2,0,1,34250,2,408,1,NA,0,0,0
107-4-4,4,1,TEST,12,1,3,1,0,35811,1,445,1,NA,0,0,0
107-4-4,4,1,TEST,13,1,1,1,1,37427,1,440,1,NA,0,0,0
107-4-4,4,1,TEST,14,1,3,1,0,39051,1,446,1,NA,0,0,0
107-4-4,4,1,TEST,15,1,2,0,1,40349,2,405,1,NA,0,0,0
107-4-4,4,1,TEST,16,1,4,0,0,42070,2,415,1,NA,0,0,0
107-4-4,4,1,TEST,17,1,2,0,1,43566,2,336,1,NA,0,0,0
107-4-4,4,1,TEST,18,1,4,0,0,45234,2,386,1,NA,0,0,0
107-4-4,4,1,TEST,19,1,3,1,0,46705,1,430,1,NA,0,0,0
107-4-4,4,1,TEST,20,1,1,1,1,48167,1,401,1,NA,0,0,0
107-4-4,4,1,TEST,21,1,3,1,0,49725,1,444,1,NA,0,0,0
107-4-4,4,1,TEST,22,1,4,0,0,51112,2,506,1,NA,0,0,0
107-4-4,4,1,TEST,23,1,1,1,1,52858,1,380,1,NA,0,0,0
107-4-4,4,1,TEST,24,1,2,0,1,54439,2,483,1,NA,0,0,0
107-4-4,4,1,TEST,25,1,4,0,0,55926,2,472,1,NA,0,0,0
107-4-4,4,2,PRACTICE,-25,2,3,1,0,60730,NA,0,0,0,414,1,0
107-4-4,4,2,PRACTICE,-24,2,4,0,0,62221,NA,0,0,0,511,1,0
107-4-4,4,2,PRACTICE,-23,2,2,0,1,63717,NA,0,0,9,458,1,0
107-4-4,4,2,PRACTICE,-22,2,1,1,1,65126,NA,0,0,9,409,1,0
107-4-4,4,2,PRACTICE,-21,2,2,0,1,66563,NA,0,0,9,385,1,0
107-4-4,4,2,PRACTICE,-20,2,3,1,0,67923,NA,0,0,0,497,1,0
107-4-4,4,2,PRACTICE,-19,2,4,0,0,69376,NA,0,0,0,450,1,0
107-4-4,4,2,PRACTICE,-18,2,1,1,1,71044,NA,0,0,9,378,1,0
107-4-4,4,2,TEST,1,2,2,0,1,72537,NA,0,0,9,390,1,0
107-4-4,4,2,TEST,2,2,1,1,1,74124,NA,0,0,9,374,1,0
107-4-4,4,2,TEST,3,2,4,0,0,75340,NA,0,0,0,450,1,0
107-4-4,4,2,TEST,4,2,3,1,0,76632,NA,0,0,0,371,1,0
107-4-4,4,2,TEST,5,2,4,0,0,78059,NA,0,0,0,363,1,0
107-4-4,4,2,TEST,6,2,1,1,1,79427,NA,0,0,9,404,1,0
107-4-4,4,2,TEST,7,2,3,1,0,80723,NA,0,0,0,452,1,0
107-4-4,4,2,TEST,8,2,2,0,1,82429,NA,0,0,9,402,1,0
107-4-4,4,2,TEST,9,2,1,1,1,84101,NA,0,0,9,443,1,0
107-4-4,4,2,TEST,10,2,4,0,0,85760,NA,0,0,0,386,1,0
107-4-4,4,2,TEST,11,2,2,0,1,87293,NA,0,0,9,457,1,0
107-4-4,4,2,TEST,12,2,3,1,0,88809,NA,0,0,0,422,1,0
107-4-4,4,2,TEST,13,2,4,0,0,90150,NA,0,0,0,417,1,0
107-4-4,4,2,TEST,14,2,1,1,1,91720,NA,0,0,9,381,1,0
107-4-4,4,2,TEST,15,2,2,0,1,93012,NA,0,0,9,376,1,0
107-4-4,4,2,TEST,16,2,3,1,0,94660,NA,0,0,0,458,1,0
107-4-4,4,2,TEST,17,2,1,1,1,96111,NA,0,0,9,352,1,0
107-4-4,4,2,TEST,18,2,2,0,1,97459,NA,0,0,9,377,1,0
107-4-4,4,2,TEST,19,2,4,0,0,98866,NA,0,0,0,369,1,0
107-4-4,4,2,TEST,20,2,3,1,0,100203,NA,0,0,0,600,1,0
107-4-4,4,2,TEST,21,2,2,0,1,102013,NA,0,0,9,391,1,0
107-4-4,4,2,TEST,22,2,1,1,1,103471,NA,0,0,9,376,1,0
107-4-4,4,2,TEST,23,2,3,1,0,104705,NA,0,0,0,455,1,0
107-4-4,4,2,TEST,24,2,4,0,0,106134,NA,0,0,0,380,1,0
107-4-4,4,2,TEST,25,2,2,0,1,107714,NA,0,0,9,402,1,0
107-4-4,4,3,PRACTICE,-25,3,2,0,1,113655,2,526,1,9,554,1,0
107-4-4,4,3,PRACTICE,-24,3,4,0,0,115538,2,547,1,0,543,1,0
107-4-4,4,3,PRACTICE,-23,3,1,1,1,117304,1,606,1,9,618,1,0
107-4-4,4,3,PRACTICE,-22,3,3,1,0,119113,1,559,1,0,589,1,0
107-4-4,4,3,PRACTICE,-21,3,1,1,1,120940,1,562,1,9,588,1,0
107-4-4,4,3,PRACTICE,-20,3,3,1,0,122700,1,575,1,0,586,1,0
107-4-4,4,3,PRACTICE,-19,3,2,0,1,124242,2,504,1,9,540,1,0
107-4-4,4,3,PRACTICE,-18,3,4,0,0,125821,2,494,1,0,498,1,0
107-4-4,4,3,TEST,1,3,2,0,1,127518,2,582,1,9,578,1,0
107-4-4,4,3,TEST,2,3,1,1,1,129309,1,832,1,9,846,1,0
107-4-4,4,3,TEST,3,3,4,0,0,131041,2,548,1,0,562,1,0
107-4-4,4,3,TEST,4,3,3,1,0,132656,1,561,1,0,557,1,0
107-4-4,4,3,TEST,5,3,1,1,1,134421,1,536,1,9,546,1,0
107-4-4,4,3,TEST,6,3,2,0,1,136197,2,475,1,9,503,1,0
107-4-4,4,3,TEST,7,3,4,0,0,137838,2,505,1,0,501,1,0
107-4-4,4,3,TEST,8,3,3,1,0,139199,1,631,1,0,643,1,0
107-4-4,4,3,TEST,9,3,1,1,1,140783,1,578,1,9,592,1,0
107-4-4,4,3,TEST,10,3,4,0,0,142440,2,740,1,0,750,1,0
107-4-4,4,3,TEST,11,3,2,0,1,144193,2,518,1,9,530,1,0
107-4-4,4,3,TEST,12,3,3,1,0,145907,1,652,1,0,684,1,0
107-4-4,4,3,TEST,13,3,1,1,1,147752,1,599,1,9,607,1,0
107-4-4,4,3,TEST,14,3,2,0,1,149252,2,495,1,9,514,1,0
107-4-4,4,3,TEST,15,3,4,0,0,151100,2,538,1,0,534,1,0
107-4-4,4,3,TEST,16,3,3,1,0,152606,1,608,1,0,616,1,0
107-4-4,4,3,TEST,17,3,2,0,1,154084,2,504,1,9,509,1,0
107-4-4,4,3,TEST,18,3,4,0,0,155658,2,388,1,0,410,1,0
107-4-4,4,3,TEST,19,3,3,1,0,157341,1,619,1,0,641,1,0
107-4-4,4,3,TEST,20,3,1,1,1,158936,1,559,1,9,551,1,0
107-4-4,4,3,TEST,21,3,3,1,0,160501,1,676,1,0,696,1,0
107-4-4,4,3,TEST,22,3,2,0,1,162472,2,501,1,9,510,1,0
107-4-4,4,3,TEST,23,3,4,0,0,164247,2,498,1,0,502,1,0
107-4-4,4,3,TEST,24,3,1,1,1,165728,1,634,1,9,614,1,0
107-4-4,4,3,TEST,25,3,3,1,0,167697,1,643,1,0,677,1,0
