subnum,block,trial,direction,stim,offset,fixationstart,delaytime,promptstart,arrowstart,maskstart,rt,corresp,resp,corr,bivalentcorr
203-1-2,P,0,-1,U,1,6107,2500,8612,9118,9119,2287,<up>,<up>,1,1
203-1-2,P,0,-1,L,1,11416,3500,14921,15427,15428,694,<left>,<left>,1,1
203-1-2,P,0,1,L,2,16134,2750,18889,19396,19396,402,<left>,<right>,0,1
203-1-2,P,0,1,U,1,19820,3000,22826,23332,23332,556,<up>,<up>,1,1
203-1-2,P,0,-1,R,2,23905,3500,27411,27918,27918,645,<right>,<right>,1,1
203-1-2,P,0,-1,U,1,28575,2500,31080,31585,31586,575,<up>,<up>,1,1
203-1-2,P,0,-1,U,2,32173,2250,34428,34934,34935,537,<up>,<up>,1,1
203-1-2,P,0,-1,R,1,35496,1750,37252,37759,37759,448,<right>,<right>,1,1
203-1-2,P,0,-1,L,1,41153,2750,43909,44114,44115,509,<left>,<left>,1,1
203-1-2,P,0,-1,L,2,44637,3250,47892,48098,48099,525,<left>,<right>,0,1
203-1-2,P,0,-1,D,1,48637,1500,50142,50349,50350,619,<down>,<down>,1,1
203-1-2,P,0,-1,L,1,50983,2500,53488,53695,53695,572,<left>,<left>,1,1
203-1-2,P,0,-1,L,1,54278,3000,57283,57489,57489,558,<left>,<left>,1,1
203-1-2,P,0,-1,U,2,58060,2250,60315,60522,60523,520,<up>,<up>,1,1
203-1-2,P,0,-1,U,1,61056,2500,63560,63767,63768,546,<up>,<up>,1,1
203-1-2,P,0,-1,R,1,64324,1750,66079,66287,66287,491,<right>,<right>,1,1
203-1-2,T,1,1,U,1,71090,3250,74345,74552,74553,581,<up>,<up>,1,1
203-1-2,T,2,1,R,1,75145,2500,77651,77857,77858,532,<right>,<right>,1,1
203-1-2,T,3,1,R,1,78403,3000,81408,81613,81614,353,<right>,<right>,1,1
203-1-2,T,4,1,D,2,81980,2250,84234,84439,84440,665,<down>,<down>,1,1
203-1-2,T,5,-1,L,1,85116,3500,88621,88827,88828,547,<left>,<left>,1,1
203-1-2,T,6,1,R,1,89388,1750,91144,91351,91351,592,<right>,<right>,1,1
203-1-2,T,7,-1,U,2,91956,3500,95461,95668,95668,658,<up>,<up>,1,1
203-1-2,T,8,-1,R,2,96337,3000,99342,99548,99548,709,<right>,<right>,1,1
203-1-2,T,9,1,L,1,100271,1500,101776,101983,101983,554,<left>,<left>,1,1
203-1-2,T,10,-1,L,2,102547,1500,104052,104258,104259,617,<left>,<left>,1,1
203-1-2,T,11,1,L,1,104889,3250,108144,108350,108351,554,<left>,<left>,1,1
203-1-2,T,12,-1,U,1,108918,3250,112173,112380,112381,570,<up>,<up>,1,1
203-1-2,T,13,1,D,1,112964,2250,115218,115425,115426,571,<down>,<down>,1,1
203-1-2,T,14,-1,U,2,116010,3500,119514,119720,119721,646,<up>,<up>,1,1
203-1-2,T,15,-1,R,1,120378,3000,123383,123588,123589,645,<right>,<right>,1,1
203-1-2,T,16,1,R,1,124247,3000,127253,127459,127460,622,<right>,<right>,1,1
203-1-2,T,17,1,U,1,128095,2750,130850,131055,131056,729,<up>,<up>,1,1
203-1-2,T,18,1,D,1,131795,3000,134800,135006,135007,574,<down>,<down>,1,1
203-1-2,T,19,1,R,2,135592,1750,137347,137554,137554,675,<right>,<right>,1,1
203-1-2,T,20,-1,L,1,138239,1500,139744,139951,139952,648,<left>,<left>,1,1
203-1-2,T,21,1,U,2,140613,2750,143368,143573,143574,841,<up>,<up>,1,1
203-1-2,T,22,-1,U,1,144429,2000,146435,146641,146641,567,<up>,<up>,1,1
203-1-2,T,23,1,L,1,147221,2250,149475,149681,149681,579,<left>,<left>,1,1
203-1-2,T,24,-1,L,1,150272,3000,153276,153483,153484,596,<left>,<left>,1,1
203-1-2,T,25,1,L,1,154094,2750,156849,157054,157055,611,<left>,<left>,1,1
203-1-2,T,26,-1,U,1,157679,2000,159683,159890,159891,518,<up>,<up>,1,1
203-1-2,T,27,-1,R,2,160422,1750,162176,162382,162382,624,<right>,<left>,0,1
203-1-2,T,28,1,R,1,163019,2250,165273,165478,165479,621,<right>,<right>,1,1
203-1-2,T,29,1,U,1,166113,2250,168368,168573,168573,496,<up>,<up>,1,1
203-1-2,T,30,-1,U,2,169082,2750,171837,172042,172043,585,<up>,<up>,1,1
203-1-2,T,31,-1,D,2,172641,1500,174147,174354,174354,767,<down>,<down>,1,1
203-1-2,T,32,1,U,2,175135,2750,177890,178097,178097,691,<up>,<up>,1,1
203-1-2,T,33,1,U,2,178801,2000,180806,181013,181014,806,<up>,<up>,1,1
203-1-2,T,34,-1,L,1,181833,2000,183839,184046,184047,645,<left>,<left>,1,1
203-1-2,T,35,1,U,1,184702,2500,187206,187411,187412,558,<up>,<up>,1,1
203-1-2,T,36,1,R,2,187981,2500,190485,190691,190691,610,<right>,<right>,1,1
203-1-2,T,37,-1,R,1,191311,3000,194318,194524,194524,612,<right>,<right>,1,1
203-1-2,T,38,1,R,2,195149,1750,196905,197112,197112,740,<right>,<right>,1,1
203-1-2,T,39,-1,L,1,197865,3500,201370,201576,201577,618,<left>,<left>,1,1
203-1-2,T,40,1,D,1,202209,3000,205214,205419,205420,689,<down>,<down>,1,1
203-1-2,T,41,-1,U,1,206122,1500,207627,207835,207835,561,<up>,<up>,1,1
203-1-2,T,42,-1,D,1,208407,1500,209912,210119,210119,610,<down>,<down>,1,1
203-1-2,T,43,-1,L,1,210741,2000,212745,212952,212953,613,<left>,<left>,1,1
203-1-2,T,44,1,U,2,213579,2750,216334,216540,216540,656,<up>,<up>,1,1
203-1-2,T,45,-1,L,1,217209,2000,219214,219420,219421,613,<left>,<left>,1,1
203-1-2,T,46,-1,L,1,220044,3000,223050,223256,223256,658,<left>,<left>,1,1
203-1-2,T,47,-1,U,2,223927,3500,227432,227637,227638,787,<up>,<up>,1,1
203-1-2,T,48,-1,R,1,228435,2500,230940,231145,231146,650,<right>,<right>,1,1
203-1-2,T,49,-1,D,1,231809,2500,234315,234522,234522,660,<down>,<down>,1,1
203-1-2,T,50,1,U,2,235193,2750,237947,238154,238155,630,<up>,<up>,1,1
