subnum,block,trial,direction,stim,offset,fixationstart,delaytime,promptstart,arrowstart,maskstart,rt,corresp,resp,corr,bivalentcorr
102-1-1,P,0,-1,D,2,129613,2500,132118,132625,132625,900,<down>,<down>,1,1
102-1-1,P,0,1,L,2,133537,2750,136291,136797,136797,890,<left>,<left>,1,1
102-1-1,P,0,-1,U,2,137700,2500,140206,140711,140711,689,<up>,<up>,1,1
102-1-1,P,0,-1,R,1,141414,3000,144419,144924,144924,776,<right>,<right>,1,1
102-1-1,P,0,1,R,1,145713,2250,147969,148474,148475,725,<right>,<right>,1,1
102-1-1,P,0,-1,D,1,149215,2000,151221,151727,151727,666,<down>,<down>,1,1
102-1-1,P,0,1,R,1,152407,3500,155911,156418,156418,573,<right>,<right>,1,1
102-1-1,P,0,-1,L,2,157079,2750,159833,160340,160340,456,<left>,<left>,1,1
102-1-1,P,0,1,L,2,173226,2250,175482,175687,175688,527,<left>,<right>,0,1
102-1-1,P,0,-1,R,1,176235,1500,177740,177947,177947,346,<right>,<left>,0,1
102-1-1,P,0,1,D,1,178308,2250,180563,180768,180769,530,<down>,<down>,1,1
102-1-1,P,0,-1,D,1,181314,2750,184069,184274,184275,429,<down>,<left>,0,0
102-1-1,P,0,-1,R,1,184726,1500,186231,186436,186436,497,<right>,<right>,1,1
102-1-1,P,0,-1,L,2,186947,3250,190203,190409,190410,589,<left>,<down>,0,0
102-1-1,P,0,-1,U,1,191024,2500,193530,193735,193736,662,<up>,<up>,1,1
102-1-1,P,0,-1,R,2,194414,3250,197670,197876,197877,605,<right>,<right>,1,1
102-1-1,T,1,-1,D,2,208118,3500,211623,211830,211830,664,<down>,<down>,1,1
102-1-1,T,2,1,R,1,212507,1500,214012,214219,214219,475,<right>,<right>,1,1
102-1-1,T,3,1,L,2,214709,3000,217714,217921,217921,607,<left>,<right>,0,1
102-1-1,T,4,1,L,2,218542,2250,220797,221004,221004,488,<left>,<left>,1,1
102-1-1,T,5,1,U,1,221505,1750,223261,223467,223468,566,<up>,<up>,1,1
102-1-1,T,6,-1,L,2,224048,3500,227554,227760,227761,607,<left>,<down>,0,0
102-1-1,T,7,-1,D,1,228383,3250,231638,231843,231844,484,<down>,<down>,1,1
102-1-1,T,8,1,R,2,232344,2250,234598,234803,234804,876,<right>,<left>,0,1
102-1-1,T,9,1,R,2,235692,1500,237196,237403,237404,742,<right>,<right>,1,1
102-1-1,T,10,1,R,1,238162,2000,240167,240372,240373,535,<right>,<right>,1,1
102-1-1,T,11,-1,D,2,240924,1750,242678,242883,242883,582,<down>,<down>,1,1
102-1-1,T,12,1,D,1,243480,2500,245986,246193,246193,502,<down>,<down>,1,1
102-1-1,T,13,-1,R,1,246717,3500,250222,250429,250429,619,<right>,<right>,1,1
102-1-1,T,14,-1,D,1,251063,3000,254068,254273,254274,459,<down>,<down>,1,1
102-1-1,T,15,-1,U,1,254751,1500,256255,256462,256463,544,<up>,<up>,1,1
102-1-1,T,16,-1,U,2,257018,2000,259023,259228,259229,656,<up>,<up>,1,1
102-1-1,T,17,1,D,2,259897,1500,261403,261610,261610,676,<down>,<down>,1,1
102-1-1,T,18,1,L,2,262302,2750,265057,265264,265264,792,<left>,<right>,0,1
102-1-1,T,19,-1,R,1,266071,2250,268326,268531,268532,567,<right>,<right>,1,1
102-1-1,T,20,-1,L,2,269115,3500,272620,272825,272826,552,<left>,<right>,0,1
102-1-1,T,21,1,R,2,273393,2000,275399,275606,275606,787,<right>,<right>,1,1
102-1-1,T,22,-1,D,1,276407,1750,278161,278366,278366,537,<down>,<down>,1,1
102-1-1,T,23,1,U,1,278917,2000,280922,281129,281129,528,<up>,<up>,1,1
102-1-1,T,24,-1,D,1,281670,2250,283925,284130,284130,419,<down>,<down>,1,1
102-1-1,T,25,1,L,1,284566,2750,287322,287529,287529,722,<left>,<left>,1,1
102-1-1,T,26,-1,R,2,288264,2500,290770,290975,290976,581,<right>,<right>,1,1
102-1-1,T,27,-1,D,1,291572,2750,294328,294535,294535,526,<down>,<down>,1,1
102-1-1,T,28,1,D,2,295073,1500,296578,296785,296785,709,<down>,<down>,1,1
102-1-1,T,29,1,U,1,297510,1500,299016,299223,299223,521,<up>,<up>,1,1
102-1-1,T,30,1,L,2,299763,1750,301518,301725,301726,603,<left>,<left>,1,1
102-1-1,T,31,1,R,1,302344,2500,304850,305057,305057,570,<right>,<right>,1,1
102-1-1,T,32,1,R,2,305641,2750,308394,308599,308600,790,<right>,<left>,0,1
102-1-1,T,33,1,U,1,309404,2500,311910,312116,312117,533,<up>,<up>,1,1
102-1-1,T,34,1,U,2,312665,2750,315420,315627,315628,582,<up>,<up>,1,1
102-1-1,T,35,-1,L,1,316224,3000,319228,319435,319436,609,<left>,<left>,1,1
102-1-1,T,36,1,L,1,320059,2750,322814,323021,323021,565,<left>,<left>,1,1
102-1-1,T,37,1,L,2,323601,3500,327106,327313,327313,601,<left>,<left>,1,1
102-1-1,T,38,-1,R,1,327930,2000,329935,330142,330142,662,<right>,<right>,1,1
102-1-1,T,39,-1,D,1,330823,2500,333327,333534,333534,536,<down>,<down>,1,1
102-1-1,T,40,1,D,2,334088,2250,336342,336549,336549,630,<down>,<down>,1,1
102-1-1,T,41,1,L,2,337191,2750,339947,340153,340154,1061,<left>,<down>,0,0
102-1-1,T,42,1,L,2,341230,1750,342985,343190,343191,616,<left>,<left>,1,1
102-1-1,T,43,1,L,2,343820,3000,346825,347030,347030,669,<left>,<left>,1,1
102-1-1,T,44,-1,U,1,347711,3250,350966,351172,351173,759,<up>,<up>,1,1
102-1-1,T,45,-1,U,2,351949,3250,355203,355408,355408,657,<up>,<up>,1,1
102-1-1,T,46,-1,L,2,356081,2250,358336,358543,358543,983,<left>,<left>,1,1
102-1-1,T,47,-1,L,2,359541,1500,361046,361251,361252,623,<left>,<left>,1,1
102-1-1,T,48,1,U,1,361889,2750,364644,364850,364850,579,<up>,<up>,1,1
102-1-1,T,49,1,L,2,365441,3000,368446,368653,368653,784,<left>,<left>,1,1
102-1-1,T,50,1,U,1,369451,3250,372707,372914,372914,527,<up>,<up>,1,1
