subnum,block,trial,direction,stim,offset,fixationstart,delaytime,promptstart,arrowstart,maskstart,rt,corresp,resp,corr,bivalentcorr
112-1-1,P,0,1,U,2,96092,2750,98846,99351,99351,1409,<up>,<up>,1,1
112-1-1,P,0,-1,D,2,100784,1500,102288,102792,102792,996,<down>,<down>,1,1
112-1-1,P,0,1,D,2,103813,2750,106568,107073,107074,646,<down>,<down>,1,1
112-1-1,P,0,1,D,2,107734,2000,109740,110245,110245,609,<down>,<down>,1,1
112-1-1,P,0,1,L,1,110875,2000,112879,113384,113384,650,<left>,<left>,1,1
112-1-1,P,0,1,R,1,114053,2500,116556,117061,117061,475,<right>,<right>,1,1
112-1-1,P,0,-1,U,2,117549,1750,119303,119806,119807,645,<up>,<up>,1,1
112-1-1,P,0,-1,L,2,120466,1500,121969,122474,122475,527,<left>,<left>,1,1
112-1-1,P,0,-1,L,1,135736,3000,138740,138943,138943,426,<left>,<left>,1,1
112-1-1,P,0,1,U,2,139388,2000,141392,141597,141598,485,<up>,<up>,1,1
112-1-1,P,0,1,U,2,142104,3000,145109,145314,145314,453,<up>,<up>,1,1
112-1-1,P,0,1,R,2,145783,1750,147536,147741,147741,553,<right>,<right>,1,1
112-1-1,P,0,1,D,2,148304,1500,149806,150010,150010,581,<down>,<down>,1,1
112-1-1,P,0,-1,L,2,150602,2250,152855,153058,153058,1020,<left>,<right>,0,1
112-1-1,P,0,1,D,2,154092,3000,157096,157300,157300,568,<down>,<down>,1,1
112-1-1,P,0,-1,R,2,157878,2250,160133,160340,160341,1370,<right>,<right>,1,1
112-1-1,T,1,-1,D,2,168874,1750,170628,170832,170833,621,<down>,<down>,1,1
112-1-1,T,2,-1,R,2,171468,3000,174471,174676,174677,466,<right>,<right>,1,1
112-1-1,T,3,-1,D,1,175160,3000,178164,178369,178369,576,<down>,<down>,1,1
112-1-1,T,4,1,U,1,178960,3250,182215,182420,182421,409,<up>,<up>,1,1
112-1-1,T,5,-1,U,1,182842,2500,185346,185550,185551,518,<up>,<up>,1,1
112-1-1,T,6,1,L,2,186080,2000,188084,188287,188287,620,<left>,<left>,1,1
112-1-1,T,7,1,L,2,188920,3250,192174,192378,192378,577,<left>,<left>,1,1
112-1-1,T,8,1,L,2,192970,2500,195475,195679,195679,503,<left>,<left>,1,1
112-1-1,T,9,1,U,2,196195,2000,198198,198403,198403,470,<up>,<up>,1,1
112-1-1,T,10,1,R,2,198883,3250,202137,202342,202343,523,<right>,<right>,1,1
112-1-1,T,11,-1,U,2,202882,2500,205385,205589,205590,565,<up>,<up>,1,1
112-1-1,T,12,-1,D,2,206171,3250,209426,209629,209630,622,<down>,<down>,1,1
112-1-1,T,13,-1,R,1,210269,2750,213023,213226,213227,436,<right>,<right>,1,1
112-1-1,T,14,-1,U,1,213679,2000,215683,215891,215891,461,<up>,<up>,1,1
112-1-1,T,15,1,U,2,216365,1500,217872,218079,218080,445,<up>,<up>,1,1
112-1-1,T,16,-1,D,2,218538,1750,220292,220497,220497,590,<down>,<down>,1,1
112-1-1,T,17,-1,R,1,221106,3000,224111,224314,224314,401,<right>,<right>,1,1
112-1-1,T,18,-1,L,2,224729,2750,227485,227691,227692,629,<left>,<left>,1,1
112-1-1,T,19,-1,L,1,228331,1500,229836,230042,230042,454,<left>,<left>,1,1
112-1-1,T,20,-1,U,2,230507,3000,233511,233716,233716,613,<up>,<up>,1,1
112-1-1,T,21,1,U,2,234340,2000,236344,236549,236549,634,<up>,<down>,0,1
112-1-1,T,22,1,L,2,237197,3000,240203,240411,240411,516,<left>,<left>,1,1
112-1-1,T,23,1,L,2,240942,3500,244448,244655,244656,592,<left>,<left>,1,1
112-1-1,T,24,-1,R,1,245259,1500,246765,246971,246972,466,<right>,<right>,1,1
112-1-1,T,25,-1,L,2,247451,2000,249457,249665,249665,970,<left>,<right>,0,1
112-1-1,T,26,-1,U,1,250649,3500,254155,254361,254362,471,<up>,<up>,1,1
112-1-1,T,27,1,U,2,254846,2000,256851,257058,257058,638,<up>,<up>,1,1
112-1-1,T,28,1,R,1,257709,3250,260964,261170,261171,463,<right>,<right>,1,1
112-1-1,T,29,-1,L,1,261644,3000,264650,264856,264857,625,<left>,<left>,1,1
112-1-1,T,30,1,L,1,265494,2000,267499,267705,267706,521,<left>,<left>,1,1
112-1-1,T,31,1,R,2,268241,1500,269747,269950,269951,644,<right>,<right>,1,1
112-1-1,T,32,-1,D,2,270608,2500,273114,273322,273322,657,<down>,<down>,1,1
112-1-1,T,33,1,R,2,273991,1500,275494,275701,275702,578,<right>,<right>,1,1
112-1-1,T,34,1,D,1,276291,3250,279544,279751,279751,519,<down>,<down>,1,1
112-1-1,T,35,-1,U,2,280285,1500,281788,281995,281995,544,<up>,<up>,1,1
112-1-1,T,36,1,R,1,282550,2250,284806,285012,285012,427,<right>,<right>,1,1
112-1-1,T,37,-1,L,2,285450,3500,288956,289164,289164,576,<left>,<left>,1,1
112-1-1,T,38,1,U,1,289753,3250,293009,293218,293218,420,<up>,<up>,1,1
112-1-1,T,39,1,U,2,293654,1500,295158,295361,295361,617,<up>,<up>,1,1
112-1-1,T,40,-1,D,2,295992,1500,297498,297704,297705,668,<down>,<down>,1,1
112-1-1,T,41,1,U,2,298386,1500,299891,300098,300098,564,<up>,<up>,1,1
112-1-1,T,42,1,D,2,300675,3250,303928,304131,304131,568,<down>,<down>,1,1
112-1-1,T,43,-1,L,1,304710,2500,307215,307421,307422,506,<left>,<left>,1,1
112-1-1,T,44,1,R,2,307939,2750,310695,310903,310903,482,<right>,<right>,1,1
112-1-1,T,45,1,R,2,311398,3000,314404,314611,314611,438,<right>,<right>,1,1
112-1-1,T,46,1,U,2,315061,3250,318317,318523,318523,585,<up>,<up>,1,1
112-1-1,T,47,-1,R,2,319121,1750,320875,321079,321079,502,<right>,<right>,1,1
112-1-1,T,48,-1,R,2,321599,2500,324103,324308,324308,510,<right>,<right>,1,1
112-1-1,T,49,-1,L,1,324830,3000,327834,328038,328038,460,<left>,<left>,1,1
112-1-1,T,50,-1,R,2,328511,1750,330265,330468,330468,446,<right>,<right>,1,1
