subnum,block,trial,direction,stim,offset,fixationstart,delaytime,promptstart,arrowstart,maskstart,rt,corresp,resp,corr,bivalentcorr
102-4-3,P,0,-1,D,2,4224,1750,5977,6481,6482,566,<down>,<up>,0,1
102-4-3,P,0,1,U,1,7075,1750,8830,9335,9336,522,<up>,<up>,1,1
102-4-3,P,0,1,R,2,9885,2500,12390,12895,12895,535,<right>,<right>,1,1
102-4-3,P,0,-1,R,2,13449,1500,14953,15458,15458,568,<right>,<right>,1,1
102-4-3,P,0,-1,L,2,16048,3000,19052,19557,19558,501,<left>,<left>,1,1
102-4-3,P,0,-1,R,2,20082,1500,21585,22089,22090,492,<right>,<right>,1,1
102-4-3,P,0,1,R,2,22605,2500,25109,25615,25615,500,<right>,<right>,1,1
102-4-3,P,0,1,U,2,26137,3000,29141,29647,29647,596,<up>,<up>,1,1
102-4-3,P,0,-1,R,1,33947,3000,36952,37157,37157,523,<right>,<right>,1,1
102-4-3,P,0,1,D,1,37690,2250,39943,40148,40149,555,<down>,<down>,1,1
102-4-3,P,0,1,R,1,40720,1500,42223,42428,42429,482,<right>,<right>,1,1
102-4-3,P,0,-1,D,1,42920,1500,44424,44629,44630,444,<down>,<down>,1,1
102-4-3,P,0,1,L,1,45093,1500,46596,46801,46801,500,<left>,<left>,1,1
102-4-3,P,0,-1,U,2,47323,2000,49327,49532,49532,700,<up>,<up>,1,1
102-4-3,P,0,1,L,1,50243,3000,53248,53453,53453,523,<left>,<left>,1,1
102-4-3,P,0,-1,R,1,53999,2500,56501,56704,56704,590,<right>,<right>,1,1
102-4-3,T,1,-1,R,1,60696,3500,64201,64406,64406,511,<right>,<right>,1,1
102-4-3,T,2,-1,D,2,64928,3500,68432,68637,68637,686,<down>,<down>,1,1
102-4-3,T,3,1,U,2,69333,1750,71086,71291,71292,611,<up>,<up>,1,1
102-4-3,T,4,-1,D,2,71916,2000,73920,74125,74125,702,<down>,<down>,1,1
102-4-3,T,5,-1,R,1,74842,2750,77595,77802,77802,529,<right>,<right>,1,1
102-4-3,T,6,-1,D,2,78348,2500,80852,81057,81057,568,<down>,<down>,1,1
102-4-3,T,7,1,D,2,81636,2750,84390,84594,84595,560,<down>,<left>,0,0
102-4-3,T,8,-1,U,2,85171,2000,87175,87380,87380,508,<up>,<down>,0,1
102-4-3,T,9,1,R,2,87899,2750,90653,90858,90858,671,<right>,<right>,1,1
102-4-3,T,10,-1,L,1,91543,3250,94797,95002,95003,710,<left>,<left>,1,1
102-4-3,T,11,1,D,2,95723,2500,98227,98432,98432,628,<down>,<down>,1,1
102-4-3,T,12,-1,L,1,99070,3000,102074,102280,102280,662,<left>,<left>,1,1
102-4-3,T,13,1,R,1,102951,1500,104455,104660,104661,476,<right>,<right>,1,1
102-4-3,T,14,-1,D,1,105147,2750,107901,108106,108106,465,<down>,<down>,1,1
102-4-3,T,15,1,L,1,108587,3250,111841,112046,112047,599,<left>,<left>,1,1
102-4-3,T,16,-1,R,1,112665,2250,114918,115123,115123,611,<right>,<right>,1,1
102-4-3,T,17,1,D,1,115748,2750,118502,118707,118708,506,<down>,<down>,1,1
102-4-3,T,18,-1,D,1,119226,3250,122480,122686,122686,416,<down>,<down>,1,1
102-4-3,T,19,-1,D,1,123125,1500,124629,124834,124834,556,<down>,<down>,1,1
102-4-3,T,20,1,R,1,125402,1500,126907,127112,127112,660,<right>,<right>,1,1
102-4-3,T,21,-1,D,1,127784,2750,130537,130742,130742,458,<down>,<down>,1,1
102-4-3,T,22,-1,D,1,131213,3500,134717,134924,134924,399,<down>,<down>,1,1
102-4-3,T,23,1,U,2,135336,3500,138840,139045,139046,602,<up>,<up>,1,1
102-4-3,T,24,-1,R,1,139659,3500,143163,143368,143368,571,<right>,<right>,1,1
102-4-3,T,25,-1,D,2,143951,1500,145455,145661,145661,571,<down>,<down>,1,1
102-4-3,T,26,1,L,2,146246,3500,149750,149955,149955,661,<left>,<left>,1,1
102-4-3,T,27,-1,U,1,150627,1750,152380,152584,152585,548,<up>,<up>,1,1
102-4-3,T,28,1,D,1,153156,2750,155910,156115,156116,514,<down>,<down>,1,1
102-4-3,T,29,-1,U,2,156648,3500,160152,160357,160358,490,<up>,<down>,0,1
102-4-3,T,30,1,R,2,160875,3000,163879,164084,164084,733,<right>,<right>,1,1
102-4-3,T,31,-1,D,2,164829,3000,167834,168038,168039,536,<down>,<down>,1,1
102-4-3,T,32,1,L,1,168591,2000,170595,170799,170800,537,<left>,<left>,1,1
102-4-3,T,33,-1,R,2,171350,3250,174604,174809,174809,688,<right>,<right>,1,1
102-4-3,T,34,1,D,1,175509,2000,177515,177718,177718,502,<down>,<down>,1,1
102-4-3,T,35,-1,R,1,178232,1750,179986,180191,180192,558,<right>,<right>,1,1
102-4-3,T,36,1,R,1,180759,2000,182762,182967,182968,453,<right>,<right>,1,1
102-4-3,T,37,-1,R,1,183435,3000,186440,186644,186645,623,<right>,<right>,1,1
102-4-3,T,38,-1,D,1,187280,2500,189783,189988,189989,660,<down>,<down>,1,1
102-4-3,T,39,-1,R,2,190661,1500,192165,192370,192371,514,<right>,<right>,1,1
102-4-3,T,40,1,D,1,192896,3500,196400,196606,196606,514,<down>,<down>,1,1
102-4-3,T,41,1,D,2,197140,2500,199644,199849,199849,573,<down>,<down>,1,1
102-4-3,T,42,-1,L,1,200434,2250,202688,202893,202894,624,<left>,<left>,1,1
102-4-3,T,43,-1,D,2,203529,2250,205783,205987,205988,496,<down>,<down>,1,1
102-4-3,T,44,-1,L,1,206497,3250,209751,209956,209956,504,<left>,<down>,0,0
102-4-3,T,45,-1,D,2,210470,1750,212223,212428,212428,551,<down>,<down>,1,1
102-4-3,T,46,-1,U,1,212989,3500,216493,216698,216698,547,<up>,<up>,1,1
102-4-3,T,47,1,R,1,217259,1500,218762,218966,218967,572,<right>,<right>,1,1
102-4-3,T,48,1,L,1,219548,3250,222802,223007,223007,541,<left>,<left>,1,1
102-4-3,T,49,1,U,2,223560,2750,226314,226519,226520,659,<up>,<up>,1,1
102-4-3,T,50,-1,L,1,227190,2000,229194,229398,229399,565,<left>,<left>,1,1
