subnum,stimtype,block,trialtype,trial,condition,stim,dim1,dim2,time0,resp1,rt1,corr1,resp2,rt2,corr2,tooslow
110-3-4,4,1,PRACTICE,-25,1,1,1,1,7418,1,696,1,NA,0,0,0
110-3-4,4,1,PRACTICE,-24,1,4,0,0,9324,2,518,1,NA,0,0,0
110-3-4,4,1,PRACTICE,-23,1,3,1,0,10930,1,552,1,NA,0,0,0
110-3-4,4,1,PRACTICE,-22,1,2,0,1,12578,2,353,1,NA,0,0,0
110-3-4,4,1,PRACTICE,-21,1,3,1,0,14105,1,368,1,NA,0,0,0
110-3-4,4,1,PRACTICE,-20,1,2,0,1,15665,2,371,1,NA,0,0,0
110-3-4,4,1,PRACTICE,-19,1,4,0,0,16975,2,437,1,NA,0,0,0
110-3-4,4,1,PRACTICE,-18,1,1,1,1,18310,1,388,1,NA,0,0,0
110-3-4,4,1,TEST,1,1,1,1,1,19663,1,339,1,NA,0,0,0
110-3-4,4,1,TEST,2,1,2,0,1,21058,2,318,1,NA,0,0,0
110-3-4,4,1,TEST,3,1,4,0,0,22685,2,392,1,NA,0,0,0
110-3-4,4,1,TEST,4,1,3,1,0,24161,1,374,1,NA,0,0,0
110-3-4,4,1,TEST,5,1,2,0,1,25656,2,313,1,NA,0,0,0
110-3-4,4,1,TEST,6,1,4,0,0,27233,2,362,1,NA,0,0,0
110-3-4,4,1,TEST,7,1,3,1,0,28817,1,366,1,NA,0,0,0
110-3-4,4,1,TEST,8,1,1,1,1,30191,1,457,1,NA,0,0,0
110-3-4,4,1,TEST,9,1,4,0,0,31624,2,349,1,NA,0,0,0
110-3-4,4,1,TEST,10,1,2,0,1,32865,2,492,1,NA,0,0,0
110-3-4,4,1,TEST,11,1,3,1,0,34372,1,296,1,NA,0,0,0
110-3-4,4,1,TEST,12,1,1,1,1,35920,1,475,1,NA,0,0,0
110-3-4,4,1,TEST,13,1,2,0,1,37234,2,388,1,NA,0,0,0
110-3-4,4,1,TEST,14,1,1,1,1,38726,1,324,1,NA,0,0,0
110-3-4,4,1,TEST,15,1,3,1,0,40260,1,395,1,NA,0,0,0
110-3-4,4,1,TEST,16,1,4,0,0,41639,2,373,1,NA,0,0,0
110-3-4,4,1,TEST,17,1,2,0,1,43251,2,767,1,NA,0,0,0
110-3-4,4,1,TEST,18,1,1,1,1,44985,1,407,1,NA,0,0,0
110-3-4,4,1,TEST,19,1,3,1,0,46265,1,448,1,NA,0,0,0
110-3-4,4,1,TEST,20,1,4,0,0,47689,2,356,1,NA,0,0,0
110-3-4,4,1,TEST,21,1,1,1,1,49218,1,454,1,NA,0,0,0
110-3-4,4,1,TEST,22,1,4,0,0,50987,2,371,1,NA,0,0,0
110-3-4,4,1,TEST,23,1,3,1,0,52655,1,363,1,NA,0,0,0
110-3-4,4,1,TEST,24,1,2,0,1,54161,2,325,1,NA,0,0,0
110-3-4,4,1,TEST,25,1,3,1,0,55778,1,330,1,NA,0,0,0
110-3-4,4,2,PRACTICE,-25,2,2,0,1,60389,NA,0,0,9,601,1,0
110-3-4,4,2,PRACTICE,-24,2,1,1,1,62148,NA,0,0,9,423,1,0
110-3-4,4,2,PRACTICE,-23,2,4,0,0,63489,NA,0,0,0,416,1,0
110-3-4,4,2,PRACTICE,-22,2,3,1,0,65061,NA,0,0,0,478,1,0
110-3-4,4,2,PRACTICE,-21,2,2,0,1,66493,NA,0,0,9,421,1,0
110-3-4,4,2,PRACTICE,-20,2,3,1,0,68028,NA,0,0,0,372,1,0
110-3-4,4,2,PRACTICE,-19,2,4,0,0,69384,NA,0,0,0,438,1,0
110-3-4,4,2,PRACTICE,-18,2,1,1,1,70789,NA,0,0,9,370,1,0
110-3-4,4,2,TEST,1,2,4,0,0,72214,NA,0,0,0,422,1,0
110-3-4,4,2,TEST,2,2,2,0,1,73647,NA,0,0,9,403,1,0
110-3-4,4,2,TEST,3,2,3,1,0,75306,NA,0,0,0,533,1,0
110-3-4,4,2,TEST,4,2,1,1,1,77021,NA,0,0,9,408,1,0
110-3-4,4,2,TEST,5,2,4,0,0,78565,NA,0,0,0,348,1,0
110-3-4,4,2,TEST,6,2,3,1,0,80040,NA,0,0,0,518,1,0
110-3-4,4,2,TEST,7,2,2,0,1,81815,NA,0,0,9,456,1,0
110-3-4,4,2,TEST,8,2,1,1,1,83158,NA,0,0,9,631,1,0
110-3-4,4,2,TEST,9,2,3,1,0,85103,NA,0,0,0,506,1,0
110-3-4,4,2,TEST,10,2,4,0,0,86795,NA,0,0,0,516,1,0
110-3-4,4,2,TEST,11,2,2,0,1,88177,NA,0,0,9,608,1,0
110-3-4,4,2,TEST,12,2,1,1,1,89737,NA,0,0,9,454,1,0
110-3-4,4,2,TEST,13,2,4,0,0,91158,NA,0,0,0,330,1,0
110-3-4,4,2,TEST,14,2,1,1,1,92361,NA,0,0,9,369,1,0
110-3-4,4,2,TEST,15,2,2,0,1,93568,NA,0,0,9,534,1,0
110-3-4,4,2,TEST,16,2,3,1,0,95175,NA,0,0,0,347,1,0
110-3-4,4,2,TEST,17,2,1,1,1,96644,NA,0,0,9,431,1,0
110-3-4,4,2,TEST,18,2,4,0,0,98053,NA,0,0,0,414,1,0
110-3-4,4,2,TEST,19,2,2,0,1,99346,NA,0,0,9,415,1,0
110-3-4,4,2,TEST,20,2,3,1,0,100841,NA,0,0,0,375,1,0
110-3-4,4,2,TEST,21,2,2,0,1,102339,NA,0,0,9,359,1,0
110-3-4,4,2,TEST,22,2,3,1,0,103957,NA,0,0,0,352,1,0
110-3-4,4,2,TEST,23,2,4,0,0,105498,NA,0,0,0,439,1,0
110-3-4,4,2,TEST,24,2,1,1,1,107189,NA,0,0,9,368,1,0
110-3-4,4,2,TEST,25,2,2,0,1,108783,NA,0,0,9,510,1,0
110-3-4,4,3,PRACTICE,-25,3,3,1,0,115712,1,935,1,0,941,1,0
110-3-4,4,3,PRACTICE,-24,3,2,0,1,117778,2,442,1,9,448,1,0
110-3-4,4,3,PRACTICE,-23,3,4,0,0,119517,2,592,1,0,609,1,0
110-3-4,4,3,PRACTICE,-22,3,1,1,1,121230,1,440,1,9,444,1,0
110-3-4,4,3,PRACTICE,-21,3,2,0,1,122939,2,548,1,9,543,1,0
110-3-4,4,3,PRACTICE,-20,3,1,1,1,124696,1,632,1,9,648,1,0
110-3-4,4,3,PRACTICE,-19,3,3,1,0,126652,1,677,1,0,681,1,0
110-3-4,4,3,PRACTICE,-18,3,4,0,0,128181,2,609,1,0,599,1,0
110-3-4,4,3,TEST,1,3,1,1,1,129661,1,480,1,9,470,1,0
110-3-4,4,3,TEST,2,3,2,0,1,131141,2,582,1,9,579,1,0
110-3-4,4,3,TEST,3,3,4,0,0,132729,2,615,1,0,605,1,0
110-3-4,4,3,TEST,4,3,3,1,0,134475,1,680,1,0,708,1,0
110-3-4,4,3,TEST,5,3,2,0,1,136377,2,544,1,9,536,1,0
110-3-4,4,3,TEST,6,3,4,0,0,137792,2,640,1,0,630,1,0
110-3-4,4,3,TEST,7,3,1,1,1,139390,1,472,1,9,484,1,0
110-3-4,4,3,TEST,8,3,3,1,0,140837,1,958,1,0,968,1,0
110-3-4,4,3,TEST,9,3,4,0,0,142855,2,714,1,0,751,1,0
110-3-4,4,3,TEST,10,3,1,1,1,144544,1,507,1,9,514,1,0
110-3-4,4,3,TEST,11,3,3,1,0,146274,1,661,1,0,681,1,0
110-3-4,4,3,TEST,12,3,2,0,1,148102,2,499,1,9,503,1,0
110-3-4,4,3,TEST,13,3,4,0,0,149604,2,722,1,0,727,1,0
110-3-4,4,3,TEST,14,3,1,1,1,151262,1,552,1,9,556,1,0
110-3-4,4,3,TEST,15,3,3,1,0,152985,1,675,1,0,680,1,0
110-3-4,4,3,TEST,16,3,2,0,1,154836,2,554,1,9,566,1,0
110-3-4,4,3,TEST,17,3,1,1,1,156307,1,733,1,9,750,1,0
110-3-4,4,3,TEST,18,3,4,0,0,158090,2,594,1,0,570,1,0
110-3-4,4,3,TEST,19,3,3,1,0,159857,1,639,1,0,648,1,0
110-3-4,4,3,TEST,20,3,2,0,1,161349,2,626,1,9,608,1,0
110-3-4,4,3,TEST,21,3,4,0,0,163315,2,638,1,0,642,1,0
110-3-4,4,3,TEST,22,3,3,1,0,165177,1,604,1,0,601,1,0
110-3-4,4,3,TEST,23,3,2,0,1,166783,2,526,1,9,530,1,0
110-3-4,4,3,TEST,24,3,1,1,1,168424,1,568,1,9,580,1,0
110-3-4,4,3,TEST,25,3,2,0,1,170031,2,588,1,9,596,1,0
