subnum,block,trial,direction,stim,offset,fixationstart,delaytime,promptstart,arrowstart,maskstart,rt,corresp,resp,corr,bivalentcorr
208-3-2,P,0,1,D,2,3856,2000,5861,6366,6367,634,<down>,<down>,1,1
208-3-2,P,0,-1,U,2,7016,2000,9021,9527,9528,496,<up>,<up>,1,1
208-3-2,P,0,-1,L,1,10048,1500,11553,12059,12059,540,<left>,<left>,1,1
208-3-2,P,0,-1,U,1,12616,1500,14120,14625,14626,413,<up>,<up>,1,1
208-3-2,P,0,-1,D,1,15061,1750,16815,17322,17323,438,<down>,<down>,1,1
208-3-2,P,0,1,U,1,17788,3250,21043,21550,21550,481,<up>,<up>,1,1
208-3-2,P,0,-1,R,2,22053,2750,24808,25314,25315,603,<right>,<right>,1,1
208-3-2,P,0,-1,U,1,25931,1500,27436,27942,27942,647,<up>,<up>,1,1
208-3-2,P,0,-1,U,2,30576,2500,33081,33287,33288,479,<up>,<up>,1,1
208-3-2,P,0,1,U,2,33778,2750,36533,36741,36742,416,<up>,<up>,1,1
208-3-2,P,0,1,R,2,37170,2000,39176,39383,39383,373,<right>,<right>,1,1
208-3-2,P,0,1,U,1,39768,2250,42024,42230,42231,451,<up>,<up>,1,1
208-3-2,P,0,1,D,1,42695,2750,45449,45654,45655,589,<down>,<down>,1,1
208-3-2,P,0,1,R,1,46257,2750,49011,49217,49217,414,<right>,<right>,1,1
208-3-2,P,0,1,D,2,49641,2500,52147,52354,52354,667,<down>,<down>,1,1
208-3-2,P,0,1,R,2,53035,2750,55791,55999,55999,591,<right>,<right>,1,1
208-3-2,T,1,-1,R,2,58342,3250,61597,61802,61803,639,<right>,<right>,1,1
208-3-2,T,2,1,U,1,62454,2250,64709,64913,64914,427,<up>,<up>,1,1
208-3-2,T,3,-1,L,1,65352,1500,66857,67064,67065,661,<left>,<left>,1,1
208-3-2,T,4,-1,U,1,67735,3500,71241,71447,71447,549,<up>,<up>,1,1
208-3-2,T,5,1,U,1,72007,3250,75262,75468,75468,427,<up>,<up>,1,1
208-3-2,T,6,1,D,2,75908,2000,77914,78121,78121,662,<down>,<down>,1,1
208-3-2,T,7,-1,D,2,78794,3000,81799,82005,82006,828,<down>,<down>,1,1
208-3-2,T,8,-1,D,2,82846,3000,85851,86058,86058,568,<down>,<down>,1,1
208-3-2,T,9,-1,L,1,86638,1500,88142,88348,88349,571,<left>,<left>,1,1
208-3-2,T,10,-1,D,1,88929,3250,92184,92390,92390,544,<down>,<down>,1,1
208-3-2,T,11,1,L,2,92948,3000,95954,96160,96160,427,<left>,<right>,0,1
208-3-2,T,12,1,R,2,96601,3500,100107,100314,100315,585,<right>,<right>,1,1
208-3-2,T,13,-1,L,2,100913,3500,104418,104625,104625,466,<left>,<left>,1,1
208-3-2,T,14,1,U,1,105104,3000,108109,108315,108315,532,<up>,<up>,1,1
208-3-2,T,15,-1,R,1,108858,2000,110863,111070,111070,583,<right>,<right>,1,1
208-3-2,T,16,-1,D,2,111663,2250,113919,114126,114127,627,<down>,<down>,1,1
208-3-2,T,17,-1,D,1,114764,2500,117270,117477,117477,469,<down>,<down>,1,1
208-3-2,T,18,-1,R,2,117963,2250,120217,120422,120423,544,<right>,<right>,1,1
208-3-2,T,19,1,R,1,120983,2250,123239,123446,123447,359,<right>,<right>,1,1
208-3-2,T,20,1,U,2,123818,3500,127324,127529,127530,551,<up>,<up>,1,1
208-3-2,T,21,-1,L,2,128092,2250,130347,130554,130555,641,<left>,<left>,1,1
208-3-2,T,22,-1,R,1,131207,2250,133462,133669,133670,453,<right>,<right>,1,1
208-3-2,T,23,1,D,2,134136,3250,137392,137597,137598,598,<down>,<down>,1,1
208-3-2,T,24,-1,U,1,138205,2250,140460,140665,140665,605,<up>,<up>,1,1
208-3-2,T,25,-1,D,1,141281,3000,144285,144491,144492,457,<down>,<down>,1,1
208-3-2,T,26,-1,L,2,144961,3250,148216,148422,148422,652,<left>,<left>,1,1
208-3-2,T,27,1,L,1,149087,2000,151093,151300,151301,538,<left>,<left>,1,1
208-3-2,T,28,1,D,1,151852,1500,153357,153564,153564,4809,<down>,<down>,1,1
208-3-2,T,29,1,U,2,158384,3500,161889,162095,162095,498,<up>,<up>,1,1
208-3-2,T,30,1,U,1,162606,2000,164612,164819,164819,469,<up>,<up>,1,1
208-3-2,T,31,1,U,1,165299,2500,167803,168011,168011,411,<up>,<up>,1,1
208-3-2,T,32,-1,R,1,168434,2000,170439,170646,170646,521,<right>,<right>,1,1
208-3-2,T,33,1,L,1,171177,3250,174432,174638,174639,457,<left>,<right>,0,1
208-3-2,T,34,1,L,2,175109,2250,177365,177572,177572,581,<left>,<left>,1,1
208-3-2,T,35,-1,R,2,178165,1750,179920,180127,180127,563,<right>,<right>,1,1
208-3-2,T,36,-1,R,1,180701,2500,183206,183413,183413,505,<right>,<right>,1,1
208-3-2,T,37,-1,R,1,183930,3250,187185,187391,187392,488,<right>,<right>,1,1
208-3-2,T,38,1,U,2,187892,2250,190147,190352,190353,553,<up>,<up>,1,1
208-3-2,T,39,1,D,1,190919,2750,193673,193880,193880,560,<down>,<down>,1,1
208-3-2,T,40,1,U,1,194451,3250,197707,197914,197914,463,<up>,<up>,1,1
208-3-2,T,41,1,U,2,198388,3500,201893,202098,202099,513,<up>,<up>,1,1
208-3-2,T,42,-1,D,1,202623,3250,205878,206083,206084,486,<down>,<down>,1,1
208-3-2,T,43,1,U,1,206582,1500,208086,208291,208291,443,<up>,<up>,1,1
208-3-2,T,44,-1,D,2,208742,1750,210499,210706,210707,521,<down>,<down>,1,1
208-3-2,T,45,1,D,2,211237,3000,214242,214448,214449,579,<down>,<down>,1,1
208-3-2,T,46,1,U,1,215041,2500,217547,217754,217755,416,<up>,<up>,1,1
208-3-2,T,47,1,R,2,218181,1750,219938,220145,220145,515,<right>,<right>,1,1
208-3-2,T,48,1,U,1,220673,2000,222678,222885,222886,429,<up>,<up>,1,1
208-3-2,T,49,-1,U,2,223324,2000,225330,225536,225536,587,<up>,<up>,1,1
208-3-2,T,50,1,U,1,226134,2250,228389,228595,228595,456,<up>,<up>,1,1
