subnum,block,trial,direction,stim,offset,fixationstart,delaytime,promptstart,arrowstart,maskstart,rt,corresp,resp,corr,bivalentcorr
114-3-4,P,0,-1,D,2,2900,2000,4906,5413,5413,640,<down>,<down>,1,1
114-3-4,P,0,1,U,1,6067,3250,9323,9829,9829,602,<up>,<up>,1,1
114-3-4,P,0,1,L,2,10449,2500,12955,13461,13461,604,<left>,<left>,1,1
114-3-4,P,0,1,U,1,14084,2000,16089,16595,16596,540,<up>,<up>,1,1
114-3-4,P,0,1,U,2,17161,2500,19668,20175,20176,476,<up>,<up>,1,1
114-3-4,P,0,-1,R,2,20677,1500,22183,22688,22689,589,<right>,<right>,1,1
114-3-4,P,0,1,D,2,23304,2000,25310,25816,25817,559,<down>,<down>,1,1
114-3-4,P,0,1,L,2,26402,3000,29407,29913,29914,630,<left>,<left>,1,1
114-3-4,P,0,1,D,2,32484,2000,34489,34695,34696,593,<down>,<down>,1,1
114-3-4,P,0,1,D,2,35301,2000,37307,37513,37513,574,<down>,<up>,0,1
114-3-4,P,0,-1,L,2,38103,1500,39608,39814,39815,670,<left>,<left>,1,1
114-3-4,P,0,-1,U,1,40497,1500,42003,42210,42211,509,<up>,<up>,1,1
114-3-4,P,0,-1,R,2,42732,1500,44237,44446,44446,576,<right>,<right>,1,1
114-3-4,P,0,1,R,2,45035,2750,47790,47996,47997,646,<right>,<right>,1,1
114-3-4,P,0,-1,D,1,48659,3000,51665,51871,51871,544,<down>,<down>,1,1
114-3-4,P,0,-1,L,1,52426,2500,54931,55137,55138,620,<left>,<left>,1,1
114-3-4,T,1,-1,R,1,57101,3500,60607,60815,60815,537,<right>,<right>,1,1
114-3-4,T,2,1,D,1,61361,2750,64116,64323,64323,608,<down>,<down>,1,1
114-3-4,T,3,1,R,1,64949,2750,67704,67911,67911,523,<right>,<right>,1,1
114-3-4,T,4,1,D,1,68453,1500,69959,70166,70166,515,<down>,<down>,1,1
114-3-4,T,5,-1,U,1,70693,2250,72950,73156,73157,522,<up>,<up>,1,1
114-3-4,T,6,-1,D,2,73692,3000,76697,76905,76905,614,<down>,<down>,1,1
114-3-4,T,7,-1,D,1,77531,1750,79286,79493,79493,511,<down>,<down>,1,1
114-3-4,T,8,-1,D,1,80018,3000,83024,83230,83231,535,<down>,<down>,1,1
114-3-4,T,9,-1,U,1,83778,3000,86783,86989,86990,539,<up>,<up>,1,1
114-3-4,T,10,-1,L,1,87543,2000,89551,89758,89758,499,<left>,<left>,1,1
114-3-4,T,11,-1,U,2,90270,2000,92276,92483,92483,528,<up>,<up>,1,1
114-3-4,T,12,-1,R,2,93023,2500,95529,95735,95735,596,<right>,<right>,1,1
114-3-4,T,13,-1,L,1,96342,3000,99348,99554,99555,604,<left>,<left>,1,1
114-3-4,T,14,-1,R,2,100173,3000,103178,103387,103387,593,<right>,<right>,1,1
114-3-4,T,15,1,L,1,103991,3250,107247,107454,107454,532,<left>,<left>,1,1
114-3-4,T,16,1,L,1,107998,1500,109503,109712,109712,585,<left>,<left>,1,1
114-3-4,T,17,1,L,2,110308,2500,112814,113021,113021,618,<left>,<left>,1,1
114-3-4,T,18,-1,L,2,113649,1750,115405,115611,115612,705,<left>,<left>,1,1
114-3-4,T,19,1,R,2,116326,2000,118332,118539,118540,603,<right>,<right>,1,1
114-3-4,T,20,-1,R,2,119156,2250,121412,121619,121619,714,<right>,<right>,1,1
114-3-4,T,21,1,R,1,122346,2750,125102,125309,125309,642,<right>,<right>,1,1
114-3-4,T,22,1,R,1,125965,2250,128220,128426,128427,570,<right>,<right>,1,1
114-3-4,T,23,-1,L,2,129008,2750,131764,131970,131971,605,<left>,<left>,1,1
114-3-4,T,24,1,R,2,132589,3000,135595,135801,135801,597,<right>,<right>,1,1
114-3-4,T,25,1,R,1,136414,3500,139919,140126,140127,571,<right>,<right>,1,1
114-3-4,T,26,1,D,2,140711,2500,143217,143425,143425,621,<down>,<down>,1,1
114-3-4,T,27,1,D,1,144057,3250,147313,147521,147521,538,<down>,<down>,1,1
114-3-4,T,28,-1,U,2,148069,3000,151074,151280,151281,639,<up>,<up>,1,1
114-3-4,T,29,1,L,2,151932,3000,154937,155143,155143,569,<left>,<left>,1,1
114-3-4,T,30,-1,U,2,155726,2250,157981,158187,158188,524,<up>,<up>,1,1
114-3-4,T,31,-1,U,1,158726,3000,161731,161937,161937,496,<up>,<up>,1,1
114-3-4,T,32,1,D,2,162451,3500,165958,166164,166164,589,<down>,<down>,1,1
114-3-4,T,33,1,D,1,166767,1500,168272,168478,168479,638,<down>,<down>,1,1
114-3-4,T,34,-1,U,1,169130,3500,172635,172844,172844,500,<up>,<up>,1,1
114-3-4,T,35,-1,D,1,173361,3000,176367,176573,176574,560,<down>,<down>,1,1
114-3-4,T,36,1,D,1,177149,3500,180655,180860,180861,496,<down>,<down>,1,1
114-3-4,T,37,1,R,1,181376,3500,184881,185087,185088,569,<right>,<right>,1,1
114-3-4,T,38,1,U,2,185672,1750,187427,187634,187634,629,<up>,<up>,1,1
114-3-4,T,39,-1,R,2,188275,2750,191031,191237,191238,572,<right>,<right>,1,1
114-3-4,T,40,-1,U,1,191824,1750,193579,193786,193786,523,<up>,<up>,1,1
114-3-4,T,41,-1,D,2,194326,3500,197832,198038,198039,624,<down>,<down>,1,1
114-3-4,T,42,-1,U,1,198680,3250,201936,202142,202143,599,<up>,<up>,1,1
114-3-4,T,43,-1,D,1,202760,2250,205015,205222,205223,575,<down>,<down>,1,1
114-3-4,T,44,1,D,2,205811,2750,208566,208773,208773,683,<down>,<down>,1,1
114-3-4,T,45,1,L,1,209469,1750,211224,211430,211431,629,<left>,<left>,1,1
114-3-4,T,46,1,D,2,212078,2250,214334,214540,214541,751,<down>,<down>,1,1
114-3-4,T,47,-1,D,1,215304,3000,218309,218515,218516,563,<down>,<down>,1,1
114-3-4,T,48,1,L,1,219098,3500,222604,222810,222811,630,<left>,<left>,1,1
114-3-4,T,49,-1,D,2,223452,1750,225208,225416,225416,626,<down>,<down>,1,1
114-3-4,T,50,-1,U,2,226052,1750,227807,228014,228014,637,<up>,<up>,1,1
