subnum,block,trial,direction,stim,offset,fixationstart,delaytime,promptstart,arrowstart,maskstart,rt,corresp,resp,corr,bivalentcorr
105-1-1,P,0,-1,R,1,72575,2500,75080,75585,75585,788,<right>,<right>,1,1
105-1-1,P,0,-1,R,2,76387,2500,78894,79400,79401,885,<right>,<right>,1,1
105-1-1,P,0,-1,L,2,80308,2250,82564,83070,83071,592,<left>,<left>,1,1
105-1-1,P,0,-1,L,1,83681,2000,85686,86192,86193,559,<left>,<left>,1,1
105-1-1,P,0,-1,U,1,86773,2500,89279,89785,89785,510,<up>,<up>,1,1
105-1-1,P,0,1,L,2,90318,1500,91822,92329,92330,790,<left>,<left>,1,1
105-1-1,P,0,1,U,1,93135,1750,94891,95398,95398,464,<up>,<up>,1,1
105-1-1,P,0,1,R,1,95923,3250,99179,99686,99686,461,<right>,<right>,1,1
105-1-1,P,0,1,D,1,111975,3000,114981,115188,115188,1639,<down>,<down>,1,1
105-1-1,P,0,1,R,1,116841,2500,119347,119554,119554,543,<right>,<right>,1,1
105-1-1,P,0,1,R,1,120114,2750,122869,123075,123076,522,<right>,<right>,1,1
105-1-1,P,0,-1,L,1,123613,3000,126618,126825,126825,534,<left>,<left>,1,1
105-1-1,P,0,-1,U,2,127374,2500,129878,130083,130083,497,<up>,<up>,1,1
105-1-1,P,0,-1,D,1,130602,2500,133108,133315,133315,616,<down>,<down>,1,1
105-1-1,P,0,-1,R,1,133942,2500,136448,136654,136654,470,<right>,<right>,1,1
105-1-1,P,0,1,D,2,137135,1500,138640,138846,138846,528,<down>,<right>,0,0
105-1-1,T,1,1,U,2,145294,2750,148050,148257,148257,762,<up>,<down>,0,1
105-1-1,T,2,1,U,2,149034,2000,151039,151244,151245,552,<up>,<up>,1,1
105-1-1,T,3,-1,U,2,151812,3500,155316,155523,155524,728,<up>,<down>,0,1
105-1-1,T,4,1,L,1,156265,3000,159270,159477,159477,467,<left>,<right>,0,1
105-1-1,T,5,1,D,1,159958,2250,162214,162420,162420,560,<down>,<down>,1,1
105-1-1,T,6,-1,L,2,162996,2500,165500,165707,165707,695,<left>,<right>,0,1
105-1-1,T,7,-1,D,2,166416,3000,169422,169627,169627,717,<down>,<down>,1,1
105-1-1,T,8,-1,L,2,170359,1750,172114,172321,172321,621,<left>,<left>,1,1
105-1-1,T,9,-1,U,2,172958,2750,175714,175921,175921,640,<up>,<up>,1,1
105-1-1,T,10,-1,L,1,176573,2500,179080,179287,179287,550,<left>,<left>,1,1
105-1-1,T,11,1,U,2,179851,3500,183356,183563,183563,833,<up>,<up>,1,1
105-1-1,T,12,-1,D,1,184410,1750,186165,186372,186372,585,<down>,<down>,1,1
105-1-1,T,13,-1,U,2,186972,2000,188977,189184,189184,592,<up>,<up>,1,1
105-1-1,T,14,1,R,2,189790,2000,191795,192002,192002,720,<right>,<right>,1,1
105-1-1,T,15,1,U,1,192736,3000,195742,195949,195949,568,<up>,<up>,1,1
105-1-1,T,16,1,R,1,196532,1500,198037,198242,198243,637,<right>,<right>,1,1
105-1-1,T,17,1,U,1,198894,2500,201398,201604,201604,542,<up>,<up>,1,1
105-1-1,T,18,1,L,2,202159,3000,205164,205371,205372,606,<left>,<left>,1,1
105-1-1,T,19,-1,R,2,205989,1750,207744,207951,207952,669,<right>,<right>,1,1
105-1-1,T,20,1,U,1,208635,3250,211890,212096,212096,617,<up>,<up>,1,1
105-1-1,T,21,-1,R,2,212727,2500,215232,215439,215439,775,<right>,<left>,0,1
105-1-1,T,22,1,D,1,216227,2750,218982,219189,219189,626,<down>,<down>,1,1
105-1-1,T,23,1,L,2,219830,3000,222835,223042,223043,623,<left>,<left>,1,1
105-1-1,T,24,1,R,2,223681,2000,225686,225893,225893,657,<right>,<right>,1,1
105-1-1,T,25,-1,R,2,226564,3500,230070,230276,230276,625,<right>,<right>,1,1
105-1-1,T,26,-1,R,1,230913,2750,233669,233874,233874,559,<right>,<right>,1,1
105-1-1,T,27,1,L,2,234449,1750,236202,236405,236406,938,<left>,<left>,1,1
105-1-1,T,28,1,U,1,237355,2750,240109,240316,240317,538,<up>,<up>,1,1
105-1-1,T,29,-1,U,2,240865,3500,244370,244577,244577,706,<up>,<up>,1,1
105-1-1,T,30,1,D,1,245295,2500,247799,248004,248005,619,<down>,<down>,1,1
105-1-1,T,31,1,R,2,248638,2500,251142,251350,251350,559,<right>,<right>,1,1
105-1-1,T,32,-1,L,1,251921,2000,253926,254132,254132,500,<left>,<left>,1,1
105-1-1,T,33,1,D,1,254646,2750,257401,257607,257608,655,<down>,<down>,1,1
105-1-1,T,34,-1,R,2,258277,3500,261783,261988,261989,619,<right>,<right>,1,1
105-1-1,T,35,1,U,1,262621,3000,265627,265834,265834,625,<up>,<up>,1,1
105-1-1,T,36,-1,L,2,266480,3000,269485,269692,269693,603,<left>,<left>,1,1
105-1-1,T,37,1,D,2,270310,1500,271815,272020,272021,598,<down>,<down>,1,1
105-1-1,T,38,1,U,1,272630,2750,275384,275590,275591,600,<up>,<up>,1,1
105-1-1,T,39,1,U,1,276206,2500,278712,278918,278918,570,<up>,<up>,1,1
105-1-1,T,40,-1,L,1,279502,1750,281257,281464,281464,578,<left>,<left>,1,1
105-1-1,T,41,-1,D,1,282056,2250,284311,284518,284518,594,<down>,<down>,1,1
105-1-1,T,42,1,L,1,285127,2500,287633,287839,287839,522,<left>,<left>,1,1
105-1-1,T,43,1,D,1,288375,1750,290130,290337,290337,565,<down>,<down>,1,1
105-1-1,T,44,1,U,1,290917,3500,294421,294629,294629,571,<up>,<up>,1,1
105-1-1,T,45,1,U,1,295215,1500,296720,296925,296926,533,<up>,<up>,1,1
105-1-1,T,46,1,D,1,297474,2500,299978,300186,300186,645,<down>,<down>,1,1
105-1-1,T,47,1,L,1,300845,3000,303850,304055,304056,735,<left>,<left>,1,1
105-1-1,T,48,-1,L,2,304806,2250,307060,307265,307266,730,<left>,<left>,1,1
105-1-1,T,49,-1,L,1,308005,3250,311260,311465,311466,508,<left>,<left>,1,1
105-1-1,T,50,-1,U,2,311986,3000,314993,315199,315200,587,<up>,<up>,1,1
