subnum,block,trial,direction,stim,offset,fixationstart,delaytime,promptstart,arrowstart,maskstart,rt,corresp,resp,corr,bivalentcorr
105-1-2,P,0,-1,U,2,8881,3500,12386,12893,12893,568,<up>,<up>,1,1
105-1-2,P,0,-1,U,2,13478,1500,14983,15490,15490,436,<up>,<up>,1,1
105-1-2,P,0,1,R,2,15951,2250,18206,18712,18713,385,<right>,<right>,1,1
105-1-2,P,0,-1,R,2,19121,2500,21627,22133,22134,427,<right>,<right>,1,1
105-1-2,P,0,1,L,1,22583,3000,25589,26096,26096,411,<left>,<left>,1,1
105-1-2,P,0,1,D,1,26530,3500,30035,30542,30542,656,<down>,<down>,1,1
105-1-2,P,0,1,R,1,31216,2250,33472,33979,33979,756,<right>,<right>,1,1
105-1-2,P,0,1,L,2,34750,3250,38006,38512,38513,601,<left>,<left>,1,1
105-1-2,P,0,-1,R,2,42442,2750,45196,45401,45402,640,<right>,<right>,1,1
105-1-2,P,0,1,L,2,46056,3250,49311,49516,49517,627,<left>,<left>,1,1
105-1-2,P,0,-1,R,2,50157,2000,52162,52368,52368,478,<right>,<right>,1,1
105-1-2,P,0,1,R,1,52862,2500,55368,55574,55575,504,<right>,<right>,1,1
105-1-2,P,0,-1,R,1,56093,2250,58348,58555,58556,500,<right>,<right>,1,1
105-1-2,P,0,1,R,2,59071,2500,61577,61784,61784,524,<right>,<left>,0,1
105-1-2,P,0,-1,R,1,62322,3250,65577,65782,65783,457,<right>,<right>,1,1
105-1-2,P,0,-1,L,2,66252,2250,68508,68715,68715,632,<left>,<left>,1,1
105-1-2,T,1,-1,U,1,72798,3250,76053,76259,76259,553,<up>,<up>,1,1
105-1-2,T,2,-1,D,1,76824,2000,78829,79036,79037,561,<down>,<down>,1,1
105-1-2,T,3,1,R,1,79613,1750,81368,81575,81575,565,<right>,<right>,1,1
105-1-2,T,4,-1,U,1,82156,1500,83661,83868,83868,527,<up>,<up>,1,1
105-1-2,T,5,-1,R,1,84409,2000,86415,86622,86623,501,<right>,<right>,1,1
105-1-2,T,6,-1,U,2,87138,3250,90393,90600,90600,592,<up>,<up>,1,1
105-1-2,T,7,-1,D,1,91205,1500,92710,92917,92917,562,<down>,<down>,1,1
105-1-2,T,8,-1,R,1,93496,2000,95502,95709,95709,494,<right>,<right>,1,1
105-1-2,T,9,1,L,1,96215,3000,99219,99424,99425,447,<left>,<right>,0,1
105-1-2,T,10,-1,U,1,99887,3500,103392,103599,103599,508,<up>,<up>,1,1
105-1-2,T,11,-1,R,1,104121,3500,107627,107833,107833,552,<right>,<right>,1,1
105-1-2,T,12,-1,U,2,108399,3250,111655,111861,111861,521,<up>,<up>,1,1
105-1-2,T,13,-1,R,1,112396,1750,114151,114358,114358,461,<right>,<right>,1,1
105-1-2,T,14,1,R,1,114830,2250,117086,117293,117294,871,<right>,<left>,0,1
105-1-2,T,15,1,R,2,118175,2500,120680,120886,120887,632,<right>,<left>,0,1
105-1-2,T,16,-1,U,2,121533,3250,124789,124996,124996,570,<up>,<up>,1,1
105-1-2,T,17,-1,D,2,125579,1500,127083,127290,127291,756,<down>,<down>,1,1
105-1-2,T,18,1,D,2,128061,3000,131067,131274,131274,672,<down>,<down>,1,1
105-1-2,T,19,-1,U,2,131959,3500,135465,135671,135672,569,<up>,<up>,1,1
105-1-2,T,20,1,L,2,136253,2250,138508,138713,138714,802,<left>,<left>,1,1
105-1-2,T,21,1,D,2,139531,2000,141537,141743,141744,519,<down>,<down>,1,1
105-1-2,T,22,1,D,2,142277,3000,145283,145489,145489,436,<down>,<right>,0,0
105-1-2,T,23,1,R,1,145939,1500,147443,147648,147649,525,<right>,<right>,1,1
105-1-2,T,24,1,L,1,148189,3250,151445,151651,151651,538,<left>,<left>,1,1
105-1-2,T,25,1,D,1,152201,1750,153957,154164,154164,619,<down>,<down>,1,1
105-1-2,T,26,1,U,1,154797,2250,157053,157260,157260,602,<up>,<up>,1,1
105-1-2,T,27,1,R,2,157876,2000,159880,160088,160088,635,<right>,<right>,1,1
105-1-2,T,28,1,D,2,160738,1500,162243,162450,162450,579,<down>,<down>,1,1
105-1-2,T,29,-1,U,1,163040,1500,164546,164752,164752,507,<up>,<up>,1,1
105-1-2,T,30,1,L,1,165271,2250,167526,167731,167732,543,<left>,<left>,1,1
105-1-2,T,31,-1,D,1,168285,2750,171041,171248,171248,623,<down>,<down>,1,1
105-1-2,T,32,-1,R,2,171885,3500,175390,175596,175597,576,<right>,<right>,1,1
105-1-2,T,33,1,D,1,176187,2250,178442,178649,178649,510,<down>,<down>,1,1
105-1-2,T,34,-1,R,2,179173,1500,180680,180886,180886,647,<right>,<right>,1,1
105-1-2,T,35,1,U,1,181547,3000,184552,184758,184758,547,<up>,<up>,1,1
105-1-2,T,36,-1,U,1,185315,2750,188071,188277,188278,593,<up>,<up>,1,1
105-1-2,T,37,-1,D,1,188887,2750,191642,191847,191848,535,<down>,<down>,1,1
105-1-2,T,38,1,L,1,192398,3000,195404,195610,195611,466,<left>,<right>,0,1
105-1-2,T,39,-1,L,1,196093,1500,197598,197803,197804,554,<left>,<left>,1,1
105-1-2,T,40,-1,D,2,198376,1750,200132,200338,200339,641,<down>,<down>,1,1
105-1-2,T,41,1,U,2,200994,1500,202498,202705,202705,575,<up>,<up>,1,1
105-1-2,T,42,1,L,1,203293,3500,206799,207005,207006,610,<left>,<left>,1,1
105-1-2,T,43,-1,D,2,207629,2750,210383,210588,210589,695,<down>,<down>,1,1
105-1-2,T,44,-1,U,1,211298,2750,214052,214257,214257,605,<up>,<up>,1,1
105-1-2,T,45,-1,U,1,214876,2750,217632,217838,217839,519,<up>,<up>,1,1
105-1-2,T,46,1,U,2,218370,2250,220625,220830,220831,583,<up>,<up>,1,1
105-1-2,T,47,1,U,1,221424,3250,224679,224886,224887,503,<up>,<up>,1,1
105-1-2,T,48,-1,D,1,225407,2500,227914,228120,228120,634,<down>,<down>,1,1
105-1-2,T,49,-1,U,1,228764,3500,232269,232475,232476,546,<up>,<up>,1,1
105-1-2,T,50,1,U,2,233038,2750,235794,236001,236001,654,<up>,<up>,1,1
