subnum,block,trial,direction,stim,offset,fixationstart,delaytime,promptstart,arrowstart,maskstart,rt,corresp,resp,corr,bivalentcorr
206-3-1,P,0,-1,L,2,3164,3500,6669,7175,7175,475,<left>,<left>,1,1
206-3-1,P,0,1,R,1,7673,2000,9679,10185,10185,408,<right>,<right>,1,1
206-3-1,P,0,1,L,2,10602,3250,13857,14363,14363,575,<left>,<left>,1,1
206-3-1,P,0,1,D,1,14955,1500,16459,16966,16967,422,<down>,<down>,1,1
206-3-1,P,0,1,R,2,17411,3250,20667,21174,21174,533,<right>,<right>,1,1
206-3-1,P,0,1,L,1,21735,3500,25241,25748,25748,454,<left>,<left>,1,1
206-3-1,P,0,-1,R,1,26223,3500,29728,30233,30234,411,<right>,<right>,1,1
206-3-1,P,0,-1,U,2,30665,2500,33170,33676,33676,465,<up>,<up>,1,1
206-3-1,P,0,1,D,2,43783,2250,46038,46243,46244,519,<down>,<down>,1,1
206-3-1,P,0,-1,L,2,46775,2750,49531,49737,49737,471,<left>,<left>,1,1
206-3-1,P,0,-1,R,1,50223,1750,51977,52182,52183,468,<right>,<right>,1,1
206-3-1,P,0,1,U,1,52668,2000,54672,54877,54877,437,<up>,<up>,1,1
206-3-1,P,0,-1,R,2,55333,2000,57337,57544,57544,550,<right>,<right>,1,1
206-3-1,P,0,-1,L,1,58110,3250,61365,61572,61572,489,<left>,<left>,1,1
206-3-1,P,0,1,L,2,62074,2250,64329,64534,64534,589,<left>,<left>,1,1
206-3-1,P,0,-1,U,2,65136,2750,67890,68096,68096,593,<up>,<up>,1,1
206-3-1,T,1,1,U,1,71748,1500,73253,73458,73459,450,<up>,<up>,1,1
206-3-1,T,2,1,L,2,73919,1500,75425,75632,75632,498,<left>,<left>,1,1
206-3-1,T,3,-1,R,1,76145,3500,79650,79855,79856,549,<right>,<right>,1,1
206-3-1,T,4,-1,U,2,80418,3250,83673,83878,83879,552,<up>,<up>,1,1
206-3-1,T,5,-1,R,2,84448,1500,85953,86160,86160,457,<right>,<right>,1,1
206-3-1,T,6,1,U,1,86632,3250,89886,90092,90092,458,<up>,<up>,1,1
206-3-1,T,7,-1,D,2,90567,3250,93822,94028,94028,565,<down>,<down>,1,1
206-3-1,T,8,1,D,1,94607,3000,97611,97818,97819,501,<down>,<down>,1,1
206-3-1,T,9,1,D,1,98332,1750,100087,100294,100294,472,<down>,<down>,1,1
206-3-1,T,10,1,U,1,100781,2500,103286,103492,103493,487,<up>,<up>,1,1
206-3-1,T,11,1,R,1,103991,2000,105996,106203,106203,443,<right>,<right>,1,1
206-3-1,T,12,-1,R,1,106663,2500,109169,109376,109376,485,<right>,<right>,1,1
206-3-1,T,13,-1,L,2,109876,2000,111880,112087,112088,560,<left>,<left>,1,1
206-3-1,T,14,1,U,2,112658,2750,115413,115620,115620,467,<up>,<up>,1,1
206-3-1,T,15,-1,L,2,116099,3000,119105,119312,119312,502,<left>,<left>,1,1
206-3-1,T,16,-1,L,2,119829,3250,123084,123290,123290,584,<left>,<left>,1,1
206-3-1,T,17,1,L,2,123889,1500,125394,125599,125600,661,<left>,<left>,1,1
206-3-1,T,18,-1,R,1,126273,3250,129527,129732,129733,512,<right>,<right>,1,1
206-3-1,T,19,1,U,2,130257,3250,133512,133717,133718,565,<up>,<up>,1,1
206-3-1,T,20,-1,R,2,134299,2500,136804,137012,137012,523,<right>,<right>,1,1
206-3-1,T,21,-1,D,1,137553,1750,139308,139513,139514,464,<down>,<down>,1,1
206-3-1,T,22,1,U,2,139989,3000,142995,143202,143202,527,<up>,<up>,1,1
206-3-1,T,23,-1,R,1,143742,1500,145248,145454,145454,470,<right>,<right>,1,1
206-3-1,T,24,1,U,1,145941,2000,147945,148152,148152,470,<up>,<up>,1,1
206-3-1,T,25,-1,L,1,148632,2750,151386,151591,151592,499,<left>,<left>,1,1
206-3-1,T,26,-1,R,2,152105,2500,154610,154817,154817,633,<right>,<right>,1,1
206-3-1,T,27,-1,R,1,155465,1500,156969,157174,157174,471,<right>,<right>,1,1
206-3-1,T,28,1,R,2,157662,1750,159417,159625,159625,586,<right>,<right>,1,1
206-3-1,T,29,1,R,2,160228,2250,162482,162688,162688,519,<right>,<right>,1,1
206-3-1,T,30,-1,D,1,163224,2250,165479,165684,165685,501,<down>,<down>,1,1
206-3-1,T,31,1,D,1,166203,3500,169709,169915,169916,510,<down>,<down>,1,1
206-3-1,T,32,-1,U,1,170450,2750,173205,173413,173413,483,<up>,<up>,1,1
206-3-1,T,33,-1,U,2,173916,3000,176921,177128,177128,577,<up>,<up>,1,1
206-3-1,T,34,1,D,1,177722,2750,180476,180681,180682,506,<down>,<down>,1,1
206-3-1,T,35,-1,R,1,181204,3000,184210,184415,184416,451,<right>,<right>,1,1
206-3-1,T,36,-1,U,2,184879,2250,187134,187339,187340,506,<up>,<up>,1,1
206-3-1,T,37,1,D,2,187863,2000,189869,190076,190076,638,<down>,<down>,1,1
206-3-1,T,38,-1,U,2,190725,2000,192731,192936,192936,604,<up>,<up>,1,1
206-3-1,T,39,-1,D,1,193556,2500,196061,196268,196268,525,<down>,<down>,1,1
206-3-1,T,40,-1,R,2,196808,1500,198312,198517,198518,553,<right>,<right>,1,1
206-3-1,T,41,1,L,1,199082,2500,201586,201791,201791,512,<left>,<left>,1,1
206-3-1,T,42,-1,L,2,202319,2250,204574,204781,204781,660,<left>,<left>,1,1
206-3-1,T,43,-1,L,1,205449,1750,207203,207408,207409,519,<left>,<left>,1,1
206-3-1,T,44,1,R,2,207940,2250,210195,210402,210402,574,<right>,<right>,1,1
206-3-1,T,45,-1,L,1,210987,2000,212992,213199,213199,473,<left>,<left>,1,1
206-3-1,T,46,-1,R,1,213684,2500,216190,216396,216397,490,<right>,<right>,1,1
206-3-1,T,47,-1,D,2,216902,2750,219657,219862,219863,545,<down>,<down>,1,1
206-3-1,T,48,1,R,1,220425,3500,223931,224138,224138,494,<right>,<right>,1,1
206-3-1,T,49,1,L,2,224641,2500,227145,227350,227351,606,<left>,<left>,1,1
206-3-1,T,50,-1,D,2,227972,2750,230727,230934,230934,568,<down>,<down>,1,1
