subnum,stimtype,block,trialtype,trial,condition,stim,dim1,dim2,time0,resp1,rt1,corr1,resp2,rt2,corr2,tooslow
109-4-4,4,1,PRACTICE,-25,1,4,0,0,8314,2,536,1,NA,0,0,0
109-4-4,4,1,PRACTICE,-24,1,3,1,0,9764,1,326,1,NA,0,0,0
109-4-4,4,1,PRACTICE,-23,1,2,0,1,11173,2,374,1,NA,0,0,0
109-4-4,4,1,PRACTICE,-22,1,1,1,1,12749,1,430,1,NA,0,0,0
109-4-4,4,1,PRACTICE,-21,1,3,1,0,14361,1,367,1,NA,0,0,0
109-4-4,4,1,PRACTICE,-20,1,2,0,1,16036,2,350,1,NA,0,0,0
109-4-4,4,1,PRACTICE,-19,1,4,0,0,17583,2,386,1,NA,0,0,0
109-4-4,4,1,PRACTICE,-18,1,1,1,1,18999,2,414,0,NA,0,0,0
109-4-4,4,1,TEST,1,1,1,1,1,20802,1,452,1,NA,0,0,0
109-4-4,4,1,TEST,2,1,4,0,0,22162,2,406,1,NA,0,0,0
109-4-4,4,1,TEST,3,1,2,0,1,23890,2,395,1,NA,0,0,0
109-4-4,4,1,TEST,4,1,3,1,0,25580,1,388,1,NA,0,0,0
109-4-4,4,1,TEST,5,1,1,1,1,27096,1,364,1,NA,0,0,0
109-4-4,4,1,TEST,6,1,2,0,1,28294,2,503,1,NA,0,0,0
109-4-4,4,1,TEST,7,1,3,1,0,29773,1,458,1,NA,0,0,0
109-4-4,4,1,TEST,8,1,4,0,0,31102,2,416,1,NA,0,0,0
109-4-4,4,1,TEST,9,1,3,1,0,32713,1,406,1,NA,0,0,0
109-4-4,4,1,TEST,10,1,2,0,1,34234,2,415,1,NA,0,0,0
109-4-4,4,1,TEST,11,1,4,0,0,35813,2,574,1,NA,0,0,0
109-4-4,4,1,TEST,12,1,1,1,1,37256,1,552,1,NA,0,0,0
109-4-4,4,1,TEST,13,1,4,0,0,38897,2,482,1,NA,0,0,0
109-4-4,4,1,TEST,14,1,2,0,1,40381,2,392,1,NA,0,0,0
109-4-4,4,1,TEST,15,1,3,1,0,41813,1,350,1,NA,0,0,0
109-4-4,4,1,TEST,16,1,1,1,1,43411,1,438,1,NA,0,0,0
109-4-4,4,1,TEST,17,1,4,0,0,44791,2,400,1,NA,0,0,0
109-4-4,4,1,TEST,18,1,3,1,0,46519,1,332,1,NA,0,0,0
109-4-4,4,1,TEST,19,1,1,1,1,48161,1,377,1,NA,0,0,0
109-4-4,4,1,TEST,20,1,2,0,1,49677,2,414,1,NA,0,0,0
109-4-4,4,1,TEST,21,1,4,0,0,51015,2,383,1,NA,0,0,0
109-4-4,4,1,TEST,22,1,3,1,0,52635,1,380,1,NA,0,0,0
109-4-4,4,1,TEST,23,1,1,1,1,54228,1,426,1,NA,0,0,0
109-4-4,4,1,TEST,24,1,2,0,1,55608,2,516,1,NA,0,0,0
109-4-4,4,1,TEST,25,1,1,1,1,57202,1,328,1,NA,0,0,0
109-4-4,4,2,PRACTICE,-25,2,2,0,1,61194,NA,0,0,9,483,1,0
109-4-4,4,2,PRACTICE,-24,2,4,0,0,62877,NA,0,0,0,353,1,0
109-4-4,4,2,PRACTICE,-23,2,1,1,1,64217,NA,0,0,9,512,1,0
109-4-4,4,2,PRACTICE,-22,2,3,1,0,66051,NA,0,0,0,324,1,0
109-4-4,4,2,PRACTICE,-21,2,1,1,1,67208,NA,0,0,9,408,1,0
109-4-4,4,2,PRACTICE,-20,2,3,1,0,68762,NA,0,0,0,476,1,0
109-4-4,4,2,PRACTICE,-19,2,2,0,1,70421,NA,0,0,9,368,1,0
109-4-4,4,2,PRACTICE,-18,2,4,0,0,72078,NA,0,0,0,325,1,0
109-4-4,4,2,TEST,1,2,3,1,0,73643,NA,0,0,0,332,1,0
109-4-4,4,2,TEST,2,2,2,0,1,75111,NA,0,0,9,348,1,0
109-4-4,4,2,TEST,3,2,4,0,0,76731,NA,0,0,0,422,1,0
109-4-4,4,2,TEST,4,2,1,1,1,78213,NA,0,0,9,383,1,0
109-4-4,4,2,TEST,5,2,2,0,1,79560,NA,0,0,9,291,1,0
109-4-4,4,2,TEST,6,2,4,0,0,80956,NA,0,0,0,346,1,0
109-4-4,4,2,TEST,7,2,1,1,1,82143,NA,0,0,9,360,1,0
109-4-4,4,2,TEST,8,2,3,1,0,83752,NA,0,0,9,310,0,0
109-4-4,4,2,TEST,9,2,4,0,0,85773,NA,0,0,0,399,1,0
109-4-4,4,2,TEST,10,2,1,1,1,87111,NA,0,0,9,440,1,0
109-4-4,4,2,TEST,11,2,2,0,1,88533,NA,0,0,9,364,1,0
109-4-4,4,2,TEST,12,2,3,1,0,90042,NA,0,0,9,426,0,0
109-4-4,4,2,TEST,13,2,1,1,1,92107,NA,0,0,9,341,1,0
109-4-4,4,2,TEST,14,2,3,1,0,93379,NA,0,0,0,411,1,0
109-4-4,4,2,TEST,15,2,4,0,0,94673,NA,0,0,0,376,1,0
109-4-4,4,2,TEST,16,2,2,0,1,95881,NA,0,0,9,428,1,0
109-4-4,4,2,TEST,17,2,1,1,1,97296,NA,0,0,9,322,1,0
109-4-4,4,2,TEST,18,2,4,0,0,98715,NA,0,0,0,272,1,0
109-4-4,4,2,TEST,19,2,2,0,1,99926,NA,0,0,9,430,1,0
109-4-4,4,2,TEST,20,2,3,1,0,101313,NA,0,0,0,366,1,0
109-4-4,4,2,TEST,21,2,2,0,1,102534,NA,0,0,9,393,1,0
109-4-4,4,2,TEST,22,2,4,0,0,104183,NA,0,0,0,416,1,0
109-4-4,4,2,TEST,23,2,3,1,0,105678,NA,0,0,0,450,1,0
109-4-4,4,2,TEST,24,2,1,1,1,107436,NA,0,0,9,414,1,0
109-4-4,4,2,TEST,25,2,4,0,0,108917,NA,0,0,0,391,1,0
109-4-4,4,3,PRACTICE,-25,3,2,0,1,113203,2,475,1,9,472,1,0
109-4-4,4,3,PRACTICE,-24,3,1,1,1,114970,1,386,1,0,414,0,0
109-4-4,4,3,PRACTICE,-23,3,4,0,0,116829,2,410,1,0,426,1,0
109-4-4,4,3,PRACTICE,-22,3,3,1,0,118193,1,445,1,0,441,1,0
109-4-4,4,3,PRACTICE,-21,3,4,0,0,119500,2,459,1,0,455,1,0
109-4-4,4,3,PRACTICE,-20,3,3,1,0,120845,1,594,1,0,588,1,0
109-4-4,4,3,PRACTICE,-19,3,2,0,1,122668,2,446,1,9,452,1,0
109-4-4,4,3,PRACTICE,-18,3,1,1,1,124335,1,447,1,9,430,1,0
109-4-4,4,3,TEST,1,3,4,0,0,125865,2,396,1,0,388,1,0
109-4-4,4,3,TEST,2,3,3,1,0,127442,1,468,1,0,472,1,0
109-4-4,4,3,TEST,3,3,2,0,1,128971,2,510,1,9,506,1,0
109-4-4,4,3,TEST,4,3,1,1,1,130336,1,481,1,9,465,1,0
109-4-4,4,3,TEST,5,3,4,0,0,131913,2,412,1,0,405,1,0
109-4-4,4,3,TEST,6,3,2,0,1,133308,2,472,1,0,468,0,0
109-4-4,4,3,TEST,7,3,1,1,1,135418,1,474,1,9,478,1,0
109-4-4,4,3,TEST,8,3,3,1,0,136925,1,515,1,0,487,1,0
109-4-4,4,3,TEST,9,3,2,0,1,138620,2,480,1,9,470,1,0
109-4-4,4,3,TEST,10,3,1,1,1,139944,1,527,1,9,557,1,0
109-4-4,4,3,TEST,11,3,3,1,0,141480,2,389,0,0,373,1,0
109-4-4,4,3,TEST,12,3,4,0,0,143405,2,456,1,0,449,1,0
109-4-4,4,3,TEST,13,3,2,0,1,145123,2,517,1,9,493,1,0
109-4-4,4,3,TEST,14,3,4,0,0,146880,2,501,1,0,505,1,0
109-4-4,4,3,TEST,15,3,1,1,1,148478,1,522,1,9,518,1,0
109-4-4,4,3,TEST,16,3,3,1,0,150184,1,566,1,0,542,1,0
109-4-4,4,3,TEST,17,3,1,1,1,151848,1,609,1,9,592,1,0
109-4-4,4,3,TEST,18,3,4,0,0,153559,2,458,1,0,454,1,0
109-4-4,4,3,TEST,19,3,2,0,1,155304,2,524,1,9,490,1,0
109-4-4,4,3,TEST,20,3,3,1,0,156876,1,473,1,0,445,1,0
109-4-4,4,3,TEST,21,3,2,0,1,158639,2,476,1,9,502,1,0
109-4-4,4,3,TEST,22,3,4,0,0,160007,2,513,1,0,487,1,0
109-4-4,4,3,TEST,23,3,3,1,0,161836,1,482,1,0,478,1,0
109-4-4,4,3,TEST,24,3,1,1,1,163281,1,676,1,9,658,1,0
109-4-4,4,3,TEST,25,3,3,1,0,165105,1,519,1,0,503,1,0
