subnum,block,trial,direction,stim,offset,fixationstart,delaytime,promptstart,arrowstart,maskstart,rt,corresp,resp,corr,bivalentcorr
204-1-2,P,0,-1,R,1,3351,2250,5606,6113,6113,542,<right>,<right>,1,1
204-1-2,P,0,1,R,2,6674,3250,9927,10432,10433,431,<right>,<right>,1,1
204-1-2,P,0,1,R,1,10887,3250,14143,14649,14649,394,<right>,<right>,1,1
204-1-2,P,0,1,D,1,15065,2750,17819,18326,18326,648,<down>,<down>,1,1
204-1-2,P,0,1,D,2,18989,2500,21494,21999,22000,695,<down>,<down>,1,1
204-1-2,P,0,-1,U,2,22709,1750,24463,24968,24968,448,<up>,<up>,1,1
204-1-2,P,0,-1,L,2,25438,2000,27442,27947,27947,400,<left>,<right>,0,1
204-1-2,P,0,-1,U,1,28370,3500,31875,32380,32381,441,<up>,<up>,1,1
204-1-2,P,0,1,U,1,38438,2000,40444,40651,40651,420,<up>,<up>,1,1
204-1-2,P,0,-1,U,1,41084,2000,43089,43296,43296,333,<up>,<up>,1,1
204-1-2,P,0,1,U,2,43647,1500,45152,45357,45357,636,<up>,<up>,1,1
204-1-2,P,0,1,U,2,46009,1500,47514,47721,47721,642,<up>,<up>,1,1
204-1-2,P,0,1,R,1,48376,2250,50631,50838,50839,429,<right>,<right>,1,1
204-1-2,P,0,1,U,1,51278,3000,54282,54490,54490,474,<up>,<up>,1,1
204-1-2,P,0,-1,R,2,54983,3500,58488,58695,58696,630,<right>,<right>,1,1
204-1-2,P,0,1,U,1,59336,1500,60841,61048,61048,427,<up>,<up>,1,1
204-1-2,T,1,1,D,2,64496,1750,66251,66458,66458,434,<down>,<up>,0,1
204-1-2,T,2,1,L,1,66908,2500,69413,69620,69620,523,<left>,<left>,1,1
204-1-2,T,3,1,L,1,70158,2250,72414,72619,72619,502,<left>,<left>,1,1
204-1-2,T,4,1,L,1,73135,3250,76391,76597,76597,406,<left>,<left>,1,1
204-1-2,T,5,1,D,2,77021,3250,80276,80483,80483,944,<down>,<down>,1,1
204-1-2,T,6,-1,D,1,81442,2250,83696,83903,83903,606,<down>,<down>,1,1
204-1-2,T,7,-1,R,2,84525,2750,87279,87484,87485,630,<right>,<right>,1,1
204-1-2,T,8,-1,L,2,88134,3250,91389,91596,91596,558,<left>,<left>,1,1
204-1-2,T,9,-1,R,2,92173,2500,94677,94885,94885,594,<right>,<right>,1,1
204-1-2,T,10,1,U,1,95496,3250,98751,98956,98957,463,<up>,<up>,1,1
204-1-2,T,11,-1,L,2,99434,2500,101940,102147,102147,471,<left>,<left>,1,1
204-1-2,T,12,1,D,1,102636,2000,104642,104848,104849,604,<down>,<down>,1,1
204-1-2,T,13,1,U,1,105474,3000,108479,108686,108687,491,<up>,<up>,1,1
204-1-2,T,14,-1,D,2,109199,2000,111204,111411,111411,556,<down>,<down>,1,1
204-1-2,T,15,1,D,2,111982,2750,114736,114941,114942,594,<down>,<down>,1,1
204-1-2,T,16,-1,R,2,115550,3500,119055,119262,119262,555,<right>,<right>,1,1
204-1-2,T,17,-1,L,2,119835,2250,122090,122295,122296,519,<left>,<left>,1,1
204-1-2,T,18,1,R,1,122838,3250,126094,126300,126301,528,<right>,<right>,1,1
204-1-2,T,19,-1,U,2,126841,2750,129597,129804,129804,485,<up>,<up>,1,1
204-1-2,T,20,-1,U,2,130303,3000,133309,133515,133516,563,<up>,<up>,1,1
204-1-2,T,21,-1,L,1,134093,3250,137347,137552,137553,506,<left>,<left>,1,1
204-1-2,T,22,-1,L,1,138075,2500,140580,140785,140786,424,<left>,<left>,1,1
204-1-2,T,23,1,R,2,141233,2500,143738,143945,143945,605,<right>,<right>,1,1
204-1-2,T,24,1,D,1,144568,3250,147823,148028,148029,505,<down>,<down>,1,1
204-1-2,T,25,1,R,2,148547,2250,150803,151010,151010,562,<right>,<right>,1,1
204-1-2,T,26,1,R,1,151590,3500,155096,155302,155303,480,<right>,<right>,1,1
204-1-2,T,27,1,U,1,155799,2500,158303,158508,158508,527,<up>,<up>,1,1
204-1-2,T,28,-1,D,1,159048,2750,161802,162008,162008,602,<down>,<down>,1,1
204-1-2,T,29,1,R,2,162627,3250,165881,166086,166087,546,<right>,<right>,1,1
204-1-2,T,30,-1,L,2,166646,2000,168652,168859,168859,569,<left>,<left>,1,1
204-1-2,T,31,-1,L,1,169450,3000,172455,172662,172662,405,<left>,<left>,1,1
204-1-2,T,32,1,D,2,173083,2500,175588,175795,175796,712,<down>,<down>,1,1
204-1-2,T,33,1,D,1,176525,2750,179280,179485,179485,534,<down>,<down>,1,1
204-1-2,T,34,-1,L,1,180031,2000,182035,182240,182241,510,<left>,<left>,1,1
204-1-2,T,35,-1,D,1,182771,2000,184776,184981,184981,536,<down>,<down>,1,1
204-1-2,T,36,-1,U,1,185534,2750,188289,188495,188496,470,<up>,<up>,1,1
204-1-2,T,37,-1,U,1,188980,3250,192236,192442,192442,407,<up>,<up>,1,1
204-1-2,T,38,1,L,2,192861,3500,196367,196573,196574,501,<left>,<right>,0,1
204-1-2,T,39,-1,R,1,197090,3250,200345,200551,200552,560,<right>,<right>,1,1
204-1-2,T,40,-1,D,2,201122,2750,203878,204085,204085,496,<down>,<up>,0,1
204-1-2,T,41,1,L,1,204599,3250,207854,208060,208061,569,<left>,<left>,1,1
204-1-2,T,42,-1,R,2,208643,1500,210148,210354,210354,672,<right>,<right>,1,1
204-1-2,T,43,-1,D,1,211039,3500,214545,214750,214751,712,<down>,<down>,1,1
204-1-2,T,44,-1,L,2,215474,1750,217228,217433,217434,595,<left>,<left>,1,1
204-1-2,T,45,1,L,1,218047,3250,221302,221508,221509,559,<left>,<left>,1,1
204-1-2,T,46,-1,D,2,222094,2750,224850,225056,225057,832,<down>,<down>,1,1
204-1-2,T,47,-1,L,2,225907,2000,227911,228117,228117,566,<left>,<left>,1,1
204-1-2,T,48,-1,U,2,228701,3500,232207,232414,232414,619,<up>,<up>,1,1
204-1-2,T,49,1,U,1,233046,3500,236551,236756,236757,623,<up>,<up>,1,1
204-1-2,T,50,1,U,1,237393,3500,240898,241105,241106,566,<up>,<up>,1,1
