subnum,stimtype,block,trialtype,trial,condition,stim,dim1,dim2,time0,resp1,rt1,corr1,resp2,rt2,corr2,tooslow
107-2-4,4,1,PRACTICE,-25,1,2,0,1,12391,2,501,1,NA,0,0,0
107-2-4,4,1,PRACTICE,-24,1,3,1,0,13755,1,377,1,NA,0,0,0
107-2-4,4,1,PRACTICE,-23,1,1,1,1,15277,1,428,1,NA,0,0,0
107-2-4,4,1,PRACTICE,-22,1,4,0,0,16738,2,322,1,NA,0,0,0
107-2-4,4,1,PRACTICE,-21,1,4,0,0,18120,2,428,1,NA,0,0,0
107-2-4,4,1,PRACTICE,-20,1,2,0,1,19520,2,382,1,NA,0,0,0
107-2-4,4,1,PRACTICE,-19,1,3,1,0,20760,1,372,1,NA,0,0,0
107-2-4,4,1,PRACTICE,-18,1,1,1,1,22345,1,475,1,NA,0,0,0
107-2-4,4,1,TEST,1,1,4,0,0,24012,2,282,1,NA,0,0,0
107-2-4,4,1,TEST,2,1,3,1,0,25455,1,530,1,NA,0,0,0
107-2-4,4,1,TEST,3,1,1,1,1,27157,1,445,1,NA,0,0,0
107-2-4,4,1,TEST,4,1,2,0,1,28871,2,425,1,NA,0,0,0
107-2-4,4,1,TEST,5,1,1,1,1,30533,1,452,1,NA,0,0,0
107-2-4,4,1,TEST,6,1,2,0,1,32265,2,522,1,NA,0,0,0
107-2-4,4,1,TEST,7,1,3,1,0,33667,1,425,1,NA,0,0,0
107-2-4,4,1,TEST,8,1,4,0,0,34995,2,552,1,NA,0,0,0
107-2-4,4,1,TEST,9,1,3,1,0,36639,1,488,1,NA,0,0,0
107-2-4,4,1,TEST,10,1,2,0,1,37997,2,385,1,NA,0,0,0
107-2-4,4,1,TEST,11,1,1,1,1,39375,1,336,1,NA,0,0,0
107-2-4,4,1,TEST,12,1,4,0,0,40800,2,335,1,NA,0,0,0
107-2-4,4,1,TEST,13,1,1,1,1,42200,1,356,1,NA,0,0,0
107-2-4,4,1,TEST,14,1,3,1,0,43587,1,685,1,NA,0,0,0
107-2-4,4,1,TEST,15,1,4,0,0,45524,2,483,1,NA,0,0,0
107-2-4,4,1,TEST,16,1,2,0,1,47120,2,397,1,NA,0,0,0
107-2-4,4,1,TEST,17,1,3,1,0,48572,1,538,1,NA,0,0,0
107-2-4,4,1,TEST,18,1,1,1,1,50144,1,449,1,NA,0,0,0
107-2-4,4,1,TEST,19,1,2,0,1,51845,2,387,1,NA,0,0,0
107-2-4,4,1,TEST,20,1,4,0,0,53436,2,362,1,NA,0,0,0
107-2-4,4,1,TEST,21,1,3,1,0,54812,1,533,1,NA,0,0,0
107-2-4,4,1,TEST,22,1,4,0,0,56265,2,410,1,NA,0,0,0
107-2-4,4,1,TEST,23,1,1,1,1,57599,1,456,1,NA,0,0,0
107-2-4,4,1,TEST,24,1,2,0,1,59309,2,357,1,NA,0,0,0
107-2-4,4,1,TEST,25,1,1,1,1,60690,1,509,1,NA,0,0,0
107-2-4,4,2,PRACTICE,-25,2,4,0,0,66852,NA,0,0,0,426,1,0
107-2-4,4,2,PRACTICE,-24,2,1,1,1,68337,NA,0,0,9,416,1,0
107-2-4,4,2,PRACTICE,-23,2,2,0,1,69810,NA,0,0,9,507,1,0
107-2-4,4,2,PRACTICE,-22,2,3,1,0,71191,NA,0,0,0,436,1,0
107-2-4,4,2,PRACTICE,-21,2,1,1,1,72579,NA,0,0,9,338,1,0
107-2-4,4,2,PRACTICE,-20,2,2,0,1,73892,NA,0,0,9,454,1,0
107-2-4,4,2,PRACTICE,-19,2,3,1,0,75250,NA,0,0,0,342,1,0
107-2-4,4,2,PRACTICE,-18,2,4,0,0,76563,NA,0,0,0,502,1,0
107-2-4,4,2,TEST,1,2,1,1,1,77953,NA,0,0,9,342,1,0
107-2-4,4,2,TEST,2,2,4,0,0,79356,NA,0,0,0,345,1,0
107-2-4,4,2,TEST,3,2,3,1,0,80916,NA,0,0,0,541,1,0
107-2-4,4,2,TEST,4,2,2,0,1,82601,NA,0,0,9,460,1,0
107-2-4,4,2,TEST,5,2,1,1,1,84270,NA,0,0,9,398,1,0
107-2-4,4,2,TEST,6,2,2,0,1,85788,NA,0,0,9,349,1,0
107-2-4,4,2,TEST,7,2,3,1,0,87009,NA,0,0,0,442,1,0
107-2-4,4,2,TEST,8,2,4,0,0,88512,NA,0,0,0,423,1,0
107-2-4,4,2,TEST,9,2,1,1,1,90218,NA,0,0,9,361,1,0
107-2-4,4,2,TEST,10,2,3,1,0,91766,NA,0,0,0,482,1,0
107-2-4,4,2,TEST,11,2,2,0,1,93321,NA,0,0,9,350,1,0
107-2-4,4,2,TEST,12,2,4,0,0,94575,NA,0,0,0,403,1,0
107-2-4,4,2,TEST,13,2,3,1,0,96287,NA,0,0,0,441,1,0
107-2-4,4,2,TEST,14,2,2,0,1,97845,NA,0,0,9,586,1,0
107-2-4,4,2,TEST,15,2,1,1,1,99569,NA,0,0,9,404,1,0
107-2-4,4,2,TEST,16,2,4,0,0,100909,NA,0,0,0,789,1,0
107-2-4,4,2,TEST,17,2,2,0,1,102927,NA,0,0,9,420,1,0
107-2-4,4,2,TEST,18,2,1,1,1,104561,NA,0,0,9,401,1,0
107-2-4,4,2,TEST,19,2,3,1,0,106061,NA,0,0,0,523,1,0
107-2-4,4,2,TEST,20,2,4,0,0,107468,NA,0,0,0,405,1,0
107-2-4,4,2,TEST,21,2,2,0,1,108971,NA,0,0,9,373,1,0
107-2-4,4,2,TEST,22,2,4,0,0,110663,NA,0,0,0,356,1,0
107-2-4,4,2,TEST,23,2,3,1,0,112109,NA,0,0,0,502,1,0
107-2-4,4,2,TEST,24,2,1,1,1,113771,NA,0,0,9,358,1,0
107-2-4,4,2,TEST,25,2,2,0,1,115146,NA,0,0,9,370,1,0
107-2-4,4,3,PRACTICE,-25,3,4,0,0,121503,2,530,1,0,539,1,0
107-2-4,4,3,PRACTICE,-24,3,3,1,0,123046,1,618,1,0,630,1,0
107-2-4,4,3,PRACTICE,-23,3,1,1,1,124763,1,611,1,9,617,1,0
107-2-4,4,3,PRACTICE,-22,3,2,0,1,126221,2,647,1,9,688,1,0
107-2-4,4,3,PRACTICE,-21,3,2,0,1,127908,2,570,1,9,676,1,0
107-2-4,4,3,PRACTICE,-20,3,4,0,0,129741,2,532,1,0,540,1,0
107-2-4,4,3,PRACTICE,-19,3,3,1,0,131166,1,740,1,0,856,1,0
107-2-4,4,3,PRACTICE,-18,3,1,1,1,133073,1,606,1,9,637,1,0
107-2-4,4,3,TEST,1,3,1,1,1,134555,1,584,1,9,601,1,0
107-2-4,4,3,TEST,2,3,2,0,1,136466,2,520,1,9,560,1,0
107-2-4,4,3,TEST,3,3,3,1,0,137969,1,518,1,0,542,1,0
107-2-4,4,3,TEST,4,3,4,0,0,139514,2,565,1,0,579,1,0
107-2-4,4,3,TEST,5,3,2,0,1,141223,2,614,1,9,618,1,0
107-2-4,4,3,TEST,6,3,1,1,1,142895,1,585,1,9,609,1,0
107-2-4,4,3,TEST,7,3,3,1,0,144375,1,574,1,0,578,1,0
107-2-4,4,3,TEST,8,3,4,0,0,145875,2,443,1,9,451,0,0
107-2-4,4,3,TEST,9,3,2,0,1,148032,2,784,1,9,850,1,0
107-2-4,4,3,TEST,10,3,1,1,1,149865,1,504,1,9,992,1,0
107-2-4,4,3,TEST,11,3,4,0,0,151992,2,628,1,0,666,1,0
107-2-4,4,3,TEST,12,3,3,1,0,153614,1,890,1,0,896,1,0
107-2-4,4,3,TEST,13,3,2,0,1,155807,2,578,1,9,782,1,0
107-2-4,4,3,TEST,14,3,4,0,0,157805,2,604,1,0,626,1,0
107-2-4,4,3,TEST,15,3,1,1,1,159680,1,553,1,9,539,1,0
107-2-4,4,3,TEST,16,3,3,1,0,161329,1,640,1,0,661,1,0
107-2-4,4,3,TEST,17,3,2,0,1,162989,2,660,1,9,826,1,0
107-2-4,4,3,TEST,18,3,4,0,0,164744,2,545,1,0,529,1,0
107-2-4,4,3,TEST,19,3,3,1,0,166365,1,484,1,0,529,1,0
107-2-4,4,3,TEST,20,3,1,1,1,167755,1,1023,1,9,1026,1,0
107-2-4,4,3,TEST,21,3,3,1,0,169904,1,830,1,0,837,1,0
107-2-4,4,3,TEST,22,3,1,1,1,171619,1,583,1,9,589,1,0
107-2-4,4,3,TEST,23,3,2,0,1,173258,2,969,1,9,1252,1,0
107-2-4,4,3,TEST,24,3,4,0,0,175374,2,523,1,0,555,1,0
107-2-4,4,3,TEST,25,3,2,0,1,177167,2,537,1,9,689,1,0
