subnum,block,trial,direction,stim,offset,fixationstart,delaytime,promptstart,arrowstart,maskstart,rt,corresp,resp,corr,bivalentcorr
204-4-2,P,0,-1,L,2,4551,3250,7807,8314,8315,583,<left>,<left>,1,1
204-4-2,P,0,-1,D,1,8924,2000,10930,11436,11436,583,<down>,<down>,1,1
204-4-2,P,0,-1,U,2,12037,2500,14542,15048,15048,466,<up>,<up>,1,1
204-4-2,P,0,1,R,2,15537,1750,17294,17799,17799,579,<right>,<right>,1,1
204-4-2,P,0,1,R,1,18394,1500,19899,20406,20406,567,<right>,<right>,1,1
204-4-2,P,0,-1,R,1,21000,3500,24506,25013,25013,449,<right>,<left>,0,1
204-4-2,P,0,1,L,1,25483,2750,28238,28744,28745,429,<left>,<left>,1,1
204-4-2,P,0,-1,D,2,29197,2250,31453,31959,31959,588,<down>,<down>,1,1
204-4-2,P,0,1,R,1,34856,2250,37110,37315,37316,562,<right>,<right>,1,1
204-4-2,P,0,-1,R,1,37894,3000,40900,41105,41106,485,<right>,<right>,1,1
204-4-2,P,0,1,L,2,41610,1500,43115,43320,43321,660,<left>,<left>,1,1
204-4-2,P,0,-1,L,1,43991,1500,45496,45704,45704,524,<left>,<left>,1,1
204-4-2,P,0,1,R,2,46241,2750,48995,49200,49201,575,<right>,<right>,1,1
204-4-2,P,0,1,R,1,49791,3500,53296,53503,53503,532,<right>,<right>,1,1
204-4-2,P,0,-1,L,2,54054,2000,56058,56265,56266,627,<left>,<left>,1,1
204-4-2,P,0,1,D,2,56905,3250,60161,60368,60368,574,<down>,<down>,1,1
204-4-2,T,1,1,L,1,63073,3500,66577,66783,66783,460,<left>,<left>,1,1
204-4-2,T,2,1,R,1,67261,2250,69516,69722,69722,445,<right>,<right>,1,1
204-4-2,T,3,-1,D,1,70184,3500,73688,73895,73895,566,<down>,<down>,1,1
204-4-2,T,4,-1,R,1,74480,1500,75984,76189,76190,485,<right>,<right>,1,1
204-4-2,T,5,1,U,2,76691,2750,79446,79651,79652,599,<up>,<up>,1,1
204-4-2,T,6,-1,R,2,80264,1500,81769,81976,81976,625,<right>,<right>,1,1
204-4-2,T,7,1,D,2,82614,3500,86119,86326,86326,669,<down>,<down>,1,1
204-4-2,T,8,1,R,1,87007,1500,88512,88717,88718,518,<right>,<right>,1,1
204-4-2,T,9,1,U,2,89253,2750,92009,92214,92215,724,<up>,<up>,1,1
204-4-2,T,10,-1,R,1,92951,1500,94456,94663,94663,585,<right>,<right>,1,1
204-4-2,T,11,-1,R,2,95264,2250,97520,97727,97727,757,<right>,<right>,1,1
204-4-2,T,12,-1,U,1,98495,3000,101500,101707,101707,477,<up>,<up>,1,1
204-4-2,T,13,-1,U,2,102204,2000,104209,104416,104416,634,<up>,<up>,1,1
204-4-2,T,14,1,R,1,105060,2750,107815,108020,108021,540,<right>,<right>,1,1
204-4-2,T,15,1,R,2,108578,1500,110082,110287,110287,581,<right>,<right>,1,1
204-4-2,T,16,1,R,1,110879,3500,114384,114590,114591,523,<right>,<right>,1,1
204-4-2,T,17,-1,R,2,115131,2250,117385,117593,117593,534,<right>,<right>,1,1
204-4-2,T,18,1,U,1,118137,2250,120392,120600,120600,436,<up>,<up>,1,1
204-4-2,T,19,-1,D,1,121051,2000,123056,123261,123262,610,<down>,<down>,1,1
204-4-2,T,20,1,U,2,123886,2250,126140,126345,126346,636,<up>,<up>,1,1
204-4-2,T,21,1,D,1,126995,1750,128750,128958,128958,599,<down>,<down>,1,1
204-4-2,T,22,1,D,2,129575,2250,131830,132038,132038,1049,<down>,<down>,1,1
204-4-2,T,23,-1,D,1,133096,1500,134601,134806,134807,568,<down>,<down>,1,1
204-4-2,T,24,1,D,1,135394,3000,138399,138606,138606,715,<down>,<down>,1,1
204-4-2,T,25,1,R,1,139341,2750,142096,142302,142302,514,<right>,<right>,1,1
204-4-2,T,26,1,L,1,142833,3500,146339,146544,146545,514,<left>,<left>,1,1
204-4-2,T,27,-1,R,1,147072,3500,150578,150785,150785,520,<right>,<right>,1,1
204-4-2,T,28,-1,L,1,151325,3250,154580,154785,154785,533,<left>,<left>,1,1
204-4-2,T,29,-1,L,2,155333,1750,157087,157292,157293,540,<left>,<left>,1,1
204-4-2,T,30,-1,D,2,157849,3250,161106,161311,161312,621,<down>,<down>,1,1
204-4-2,T,31,1,U,1,161951,2250,164205,164413,164413,546,<up>,<up>,1,1
204-4-2,T,32,-1,U,2,164981,1500,166485,166692,166692,671,<up>,<up>,1,1
204-4-2,T,33,-1,U,2,167379,1750,169135,169341,169342,637,<up>,<up>,1,1
204-4-2,T,34,1,L,1,169995,2500,172500,172707,172707,509,<left>,<left>,1,1
204-4-2,T,35,-1,U,2,173234,2250,175489,175696,175696,483,<up>,<up>,1,1
204-4-2,T,36,1,R,1,176198,2250,178453,178658,178659,574,<right>,<right>,1,1
204-4-2,T,37,-1,U,2,179250,2250,181504,181709,181710,575,<up>,<up>,1,1
204-4-2,T,38,1,R,2,182300,1750,184055,184261,184261,574,<right>,<right>,1,1
204-4-2,T,39,-1,R,1,184860,1750,186615,186820,186821,650,<right>,<right>,1,1
204-4-2,T,40,1,U,1,187491,2750,190246,190451,190452,481,<up>,<up>,1,1
204-4-2,T,41,-1,D,2,190959,2500,193465,193672,193672,654,<down>,<down>,1,1
204-4-2,T,42,-1,U,1,194345,2750,197101,197308,197308,646,<up>,<up>,1,1
204-4-2,T,43,-1,R,1,197968,3500,201473,201679,201679,614,<right>,<right>,1,1
204-4-2,T,44,-1,L,1,202305,3000,205309,205516,205516,509,<left>,<left>,1,1
204-4-2,T,45,-1,U,1,206039,2750,208794,209001,209001,601,<up>,<up>,1,1
204-4-2,T,46,1,L,1,209618,2250,211873,212078,212079,548,<left>,<left>,1,1
204-4-2,T,47,1,U,1,212645,1750,214400,214607,214607,551,<up>,<up>,1,1
204-4-2,T,48,-1,R,2,215175,3500,218680,218887,218888,604,<right>,<right>,1,1
204-4-2,T,49,-1,L,1,219507,2750,222262,222468,222469,487,<left>,<left>,1,1
204-4-2,T,50,-1,L,2,222974,1750,224729,224934,224935,503,<left>,<left>,1,1
