subnum,block,trial,direction,stim,offset,fixationstart,delaytime,promptstart,arrowstart,maskstart,rt,corresp,resp,corr,bivalentcorr
205-2-4,P,0,1,U,1,3854,3000,6861,7367,7368,902,<up>,<up>,1,1
205-2-4,P,0,-1,D,1,8287,2250,10544,11050,11050,467,<down>,<down>,1,1
205-2-4,P,0,-1,D,2,11547,1500,13056,13563,13563,441,<down>,<down>,1,1
205-2-4,P,0,-1,U,1,14033,2000,16039,16545,16546,539,<up>,<up>,1,1
205-2-4,P,0,1,D,1,17107,3500,20613,21120,21121,566,<down>,<down>,1,1
205-2-4,P,0,1,L,2,21712,1500,23217,23725,23725,635,<left>,<left>,1,1
205-2-4,P,0,1,L,1,24378,2750,27134,27642,27642,461,<left>,<left>,1,1
205-2-4,P,0,1,R,2,28133,2750,30889,31395,31396,597,<right>,<right>,1,1
205-2-4,P,0,1,R,1,34800,1750,36557,36763,36764,499,<right>,<right>,1,1
205-2-4,P,0,-1,U,2,37278,3000,40283,40489,40490,667,<up>,<up>,1,1
205-2-4,P,0,1,U,2,41174,1750,42931,43137,43138,701,<up>,<up>,1,1
205-2-4,P,0,1,L,1,43854,3000,46860,47066,47067,527,<left>,<left>,1,1
205-2-4,P,0,1,L,1,47607,2500,50113,50319,50319,493,<left>,<left>,1,1
205-2-4,P,0,1,U,2,50830,3000,53836,54043,54043,520,<up>,<up>,1,1
205-2-4,P,0,1,L,2,54594,2250,56850,57056,57057,518,<left>,<left>,1,1
205-2-4,P,0,-1,D,2,57593,3500,61099,61306,61306,552,<down>,<down>,1,1
205-2-4,T,1,1,D,2,63982,3500,67488,67694,67695,558,<down>,<down>,1,1
205-2-4,T,2,1,U,1,68274,2250,70531,70739,70739,554,<up>,<up>,1,1
205-2-4,T,3,1,R,1,71317,2000,73324,73530,73531,610,<right>,<right>,1,1
205-2-4,T,4,-1,R,1,74158,3000,77163,77369,77370,871,<right>,<right>,1,1
205-2-4,T,5,-1,U,1,78254,2500,80760,80966,80967,577,<up>,<up>,1,1
205-2-4,T,6,-1,R,2,81560,3250,84816,85025,85026,651,<right>,<right>,1,1
205-2-4,T,7,-1,R,2,85691,2000,87697,87906,87906,534,<right>,<right>,1,1
205-2-4,T,8,-1,L,1,88467,3500,91973,92179,92180,506,<left>,<left>,1,1
205-2-4,T,9,1,L,2,92702,2250,94958,95166,95166,643,<left>,<left>,1,1
205-2-4,T,10,1,L,1,95824,2750,98580,98787,98788,589,<left>,<left>,1,1
205-2-4,T,11,-1,U,1,99391,2750,102148,102354,102355,472,<up>,<up>,1,1
205-2-4,T,12,-1,U,1,102844,2000,104851,105057,105058,608,<up>,<up>,1,1
205-2-4,T,13,1,D,1,105682,1500,107189,107396,107396,546,<down>,<down>,1,1
205-2-4,T,14,1,L,1,107959,1500,109465,109673,109674,520,<left>,<left>,1,1
205-2-4,T,15,-1,R,2,110212,1750,111968,112175,112175,704,<right>,<right>,1,1
205-2-4,T,16,1,U,2,112893,3000,115899,116106,116106,642,<up>,<up>,1,1
205-2-4,T,17,-1,R,2,116769,3250,120024,120230,120231,536,<right>,<right>,1,1
205-2-4,T,18,-1,U,2,120783,3250,124038,124244,124245,557,<up>,<up>,1,1
205-2-4,T,19,1,L,2,124818,3000,127825,128033,128033,541,<left>,<left>,1,1
205-2-4,T,20,-1,L,1,128592,3500,132097,132303,132304,638,<left>,<left>,1,1
205-2-4,T,21,1,D,2,132959,2500,135464,135673,135673,575,<down>,<down>,1,1
205-2-4,T,22,-1,U,2,136265,3500,139772,139979,139980,465,<up>,<up>,1,1
205-2-4,T,23,-1,U,1,140469,3250,143725,143932,143933,457,<up>,<up>,1,1
205-2-4,T,24,-1,L,1,144411,2250,146669,146875,146876,534,<left>,<left>,1,1
205-2-4,T,25,-1,R,1,147435,2000,149440,149646,149647,445,<right>,<right>,1,1
205-2-4,T,26,1,L,2,150115,2000,152121,152328,152328,555,<left>,<left>,1,1
205-2-4,T,27,1,U,1,152897,1500,154402,154608,154609,491,<up>,<up>,1,1
205-2-4,T,28,-1,U,2,155124,3500,158631,158839,158839,488,<up>,<up>,1,1
205-2-4,T,29,1,R,2,159351,1750,161106,161312,161313,550,<right>,<left>,0,1
205-2-4,T,30,1,R,1,161884,1750,163639,163847,163847,560,<right>,<right>,1,1
205-2-4,T,31,-1,U,2,164422,2250,166678,166884,166885,534,<up>,<up>,1,1
205-2-4,T,32,1,U,1,167441,1750,169198,169406,169406,471,<up>,<up>,1,1
205-2-4,T,33,-1,U,1,169894,2000,171900,172106,172107,552,<up>,<up>,1,1
205-2-4,T,34,1,R,1,172686,2500,175191,175397,175398,590,<right>,<right>,1,1
205-2-4,T,35,-1,L,1,176003,3000,179009,179218,179218,587,<left>,<left>,1,1
205-2-4,T,36,1,L,1,179820,3000,182826,183035,183035,571,<left>,<left>,1,1
205-2-4,T,37,1,U,1,183626,2000,185631,185839,185839,430,<up>,<up>,1,1
205-2-4,T,38,-1,D,2,186292,2000,188298,188504,188505,730,<down>,<down>,1,1
205-2-4,T,39,1,D,2,189251,2750,192006,192212,192213,608,<down>,<down>,1,1
205-2-4,T,40,-1,D,2,192835,3250,196091,196300,196300,562,<down>,<down>,1,1
205-2-4,T,41,1,R,1,196885,3500,200391,200597,200598,521,<right>,<right>,1,1
205-2-4,T,42,1,D,2,201132,3250,204387,204593,204594,597,<down>,<down>,1,1
205-2-4,T,43,-1,R,2,205217,2250,207474,207680,207681,954,<right>,<right>,1,1
205-2-4,T,44,-1,D,2,208649,3000,211654,211860,211861,741,<down>,<down>,1,1
205-2-4,T,45,-1,R,2,212618,2000,214624,214833,214833,664,<right>,<right>,1,1
205-2-4,T,46,1,L,1,215517,1750,217273,217481,217482,560,<left>,<left>,1,1
205-2-4,T,47,1,R,1,218061,3250,221317,221525,221526,515,<right>,<right>,1,1
205-2-4,T,48,-1,R,1,222056,2000,224061,224267,224268,566,<right>,<right>,1,1
205-2-4,T,49,-1,L,2,224852,3250,228109,228317,228317,590,<left>,<left>,1,1
205-2-4,T,50,1,U,1,228922,3250,232177,232386,232386,458,<up>,<up>,1,1
