subnum,block,trial,direction,stim,offset,fixationstart,delaytime,promptstart,arrowstart,maskstart,rt,corresp,resp,corr,bivalentcorr
115-4-4,P,0,-1,U,2,3505,2500,6010,6519,6519,572,<up>,<up>,1,1
115-4-4,P,0,1,U,1,7106,2750,9862,10370,10370,460,<up>,<up>,1,1
115-4-4,P,0,1,U,2,10857,2500,13363,13869,13870,493,<up>,<up>,1,1
115-4-4,P,0,1,U,1,14390,1750,16145,16652,16652,374,<up>,<up>,1,1
115-4-4,P,0,1,R,2,17055,2750,19811,20318,20319,567,<right>,<right>,1,1
115-4-4,P,0,1,D,2,20903,2750,23659,24165,24165,447,<down>,<up>,0,1
115-4-4,P,0,-1,R,1,24632,3250,27888,28397,28397,498,<right>,<right>,1,1
115-4-4,P,0,1,D,1,28921,2250,31176,31682,31683,492,<down>,<down>,1,1
115-4-4,P,0,1,U,2,34783,3250,38039,38245,38245,606,<up>,<up>,1,1
115-4-4,P,0,-1,D,2,38862,1750,40618,40824,40824,673,<down>,<down>,1,1
115-4-4,P,0,1,U,2,41508,2000,43514,43721,43722,573,<up>,<up>,1,1
115-4-4,P,0,1,U,1,44306,3500,47812,48020,48020,453,<up>,<up>,1,1
115-4-4,P,0,1,R,1,48483,3500,51990,52198,52198,406,<right>,<right>,1,1
115-4-4,P,0,-1,U,2,52616,3500,56122,56328,56329,535,<up>,<up>,1,1
115-4-4,P,0,-1,R,2,56877,1500,58383,58589,58590,552,<right>,<right>,1,1
115-4-4,P,0,1,D,2,59153,2000,61159,61367,61368,680,<down>,<down>,1,1
115-4-4,T,1,1,U,1,63734,2250,65990,66196,66197,509,<up>,<up>,1,1
115-4-4,T,2,-1,D,2,66718,1500,68224,68430,68430,816,<down>,<down>,1,1
115-4-4,T,3,1,U,2,69258,2000,71263,71469,71470,503,<up>,<up>,1,1
115-4-4,T,4,1,R,2,71985,2500,74490,74698,74699,583,<right>,<right>,1,1
115-4-4,T,5,-1,D,2,75293,1500,76800,77008,77008,668,<down>,<down>,1,1
115-4-4,T,6,-1,R,2,77688,3500,81194,81402,81402,632,<right>,<right>,1,1
115-4-4,T,7,1,D,1,82047,3250,85302,85511,85511,623,<down>,<down>,1,1
115-4-4,T,8,-1,D,1,86144,1500,87650,87856,87857,605,<down>,<down>,1,1
115-4-4,T,9,-1,U,1,88474,3250,91731,91938,91939,537,<up>,<up>,1,1
115-4-4,T,10,1,L,2,92487,1500,93993,94201,94202,685,<left>,<left>,1,1
115-4-4,T,11,1,L,1,94898,1500,96404,96613,96613,554,<left>,<left>,1,1
115-4-4,T,12,1,L,1,97178,1500,98684,98890,98891,456,<left>,<left>,1,1
115-4-4,T,13,1,U,1,99360,1500,100865,101072,101072,483,<up>,<up>,1,1
115-4-4,T,14,1,D,1,101567,3500,105074,105282,105282,549,<down>,<down>,1,1
115-4-4,T,15,1,R,1,105841,2500,108346,108555,108555,459,<right>,<right>,1,1
115-4-4,T,16,-1,U,2,109025,2500,111531,111739,111739,648,<up>,<up>,1,1
115-4-4,T,17,-1,D,2,112397,2000,114403,114609,114610,685,<down>,<down>,1,1
115-4-4,T,18,-1,D,1,115308,2500,117814,118021,118021,479,<down>,<down>,1,1
115-4-4,T,19,-1,D,2,118509,1750,120264,120470,120471,650,<down>,<down>,1,1
115-4-4,T,20,-1,U,2,121132,3000,124137,124343,124343,430,<up>,<down>,0,1
115-4-4,T,21,1,U,1,124784,3000,127790,127996,127997,510,<up>,<up>,1,1
115-4-4,T,22,-1,U,2,128517,3000,131522,131730,131731,710,<up>,<up>,1,1
115-4-4,T,23,-1,R,1,132454,1500,133959,134165,134166,726,<right>,<right>,1,1
115-4-4,T,24,1,R,2,134903,3500,138409,138615,138615,648,<right>,<right>,1,1
115-4-4,T,25,-1,U,1,139276,2500,141783,141991,141991,974,<up>,<up>,1,1
115-4-4,T,26,-1,U,2,142978,2750,145734,145940,145941,517,<up>,<up>,1,1
115-4-4,T,27,-1,L,1,146469,2250,148724,148932,148932,499,<left>,<left>,1,1
115-4-4,T,28,-1,L,2,149441,1500,150947,151153,151154,589,<left>,<left>,1,1
115-4-4,T,29,1,U,2,151752,2750,154508,154714,154715,652,<up>,<up>,1,1
115-4-4,T,30,-1,L,1,155380,3000,158386,158593,158593,488,<left>,<left>,1,1
115-4-4,T,31,1,D,1,159093,3500,162598,162804,162805,641,<down>,<down>,1,1
115-4-4,T,32,-1,L,2,163456,1500,164962,165171,165171,632,<left>,<left>,1,1
115-4-4,T,33,1,L,1,165816,2250,168072,168281,168281,507,<left>,<left>,1,1
115-4-4,T,34,1,D,2,168799,3500,172304,172510,172510,648,<down>,<down>,1,1
115-4-4,T,35,-1,D,2,173171,3000,176177,176383,176383,649,<down>,<down>,1,1
115-4-4,T,36,-1,U,1,177043,2250,179299,179507,179507,621,<up>,<up>,1,1
115-4-4,T,37,1,R,1,180137,2500,182642,182848,182849,595,<right>,<right>,1,1
115-4-4,T,38,1,R,1,183456,2750,186212,186418,186418,563,<right>,<right>,1,1
115-4-4,T,39,-1,D,2,186993,3000,189998,190204,190204,622,<down>,<down>,1,1
115-4-4,T,40,1,U,1,190839,3250,194096,194304,194304,648,<up>,<up>,1,1
115-4-4,T,41,1,D,2,194965,2750,197721,197929,197929,629,<down>,<down>,1,1
115-4-4,T,42,-1,D,2,198569,1500,200075,200281,200281,585,<down>,<down>,1,1
115-4-4,T,43,1,L,2,200878,1750,202634,202840,202840,561,<left>,<left>,1,1
115-4-4,T,44,-1,L,1,203411,3000,206416,206622,206622,446,<left>,<down>,0,0
115-4-4,T,45,1,D,2,207080,3000,210086,210292,210293,594,<down>,<down>,1,1
115-4-4,T,46,-1,D,2,210899,3250,214155,214363,214363,630,<down>,<down>,1,1
115-4-4,T,47,-1,U,2,215005,3500,218510,218718,218719,608,<up>,<up>,1,1
115-4-4,T,48,-1,U,2,219339,2250,221594,221802,221802,527,<up>,<up>,1,1
115-4-4,T,49,1,R,2,222338,2000,224344,224550,224551,548,<right>,<right>,1,1
115-4-4,T,50,1,U,2,225111,1500,226616,226822,226823,593,<up>,<up>,1,1
