subnum,block,trial,direction,stim,offset,fixationstart,delaytime,promptstart,arrowstart,maskstart,rt,corresp,resp,corr,bivalentcorr
105-2-1,P,0,-1,D,2,12760,3000,15765,16270,16271,941,<down>,<down>,1,1
105-2-1,P,0,1,U,1,17226,3000,20231,20736,20736,574,<up>,<up>,1,1
105-2-1,P,0,-1,L,1,21335,3500,24843,25350,25350,453,<left>,<left>,1,1
105-2-1,P,0,-1,R,2,25826,3500,29331,29836,29836,666,<right>,<right>,1,1
105-2-1,P,0,1,R,1,30515,1750,32270,32775,32775,504,<right>,<right>,1,1
105-2-1,P,0,-1,R,1,33302,1500,34806,35312,35313,460,<right>,<right>,1,1
105-2-1,P,0,-1,U,1,35798,2000,37803,38308,38309,481,<up>,<up>,1,1
105-2-1,P,0,-1,L,2,38814,2500,41318,41823,41824,576,<left>,<left>,1,1
105-2-1,P,0,1,L,2,44706,2000,46710,46915,46916,1546,<left>,<left>,1,1
105-2-1,P,0,1,D,2,48475,1750,50229,50434,50435,595,<down>,<down>,1,1
105-2-1,P,0,1,U,2,51042,2250,53296,53501,53502,545,<up>,<up>,1,1
105-2-1,P,0,-1,L,2,54064,2500,56569,56776,56776,520,<left>,<left>,1,1
105-2-1,P,0,1,D,1,57311,3500,60817,61024,61024,522,<down>,<down>,1,1
105-2-1,P,0,1,U,1,61560,2500,64065,64272,64273,517,<up>,<up>,1,1
105-2-1,P,0,-1,D,2,64803,1750,66558,66763,66764,586,<down>,<down>,1,1
105-2-1,P,0,-1,R,2,67369,1500,68874,69081,69082,563,<right>,<right>,1,1
105-2-1,T,1,-1,R,1,71973,3250,75229,75435,75436,532,<right>,<right>,1,1
105-2-1,T,2,-1,U,2,75978,1500,77483,77690,77690,531,<up>,<up>,1,1
105-2-1,T,3,-1,U,1,78235,2250,80490,80697,80698,496,<up>,<up>,1,1
105-2-1,T,4,1,U,2,81205,2250,83461,83667,83668,708,<up>,<up>,1,1
105-2-1,T,5,-1,D,2,84395,1500,85901,86107,86108,621,<down>,<down>,1,1
105-2-1,T,6,1,R,2,86748,3250,90002,90209,90210,728,<right>,<right>,1,1
105-2-1,T,7,-1,L,1,90952,1750,92708,92915,92915,524,<left>,<left>,1,1
105-2-1,T,8,1,R,2,93452,2000,95457,95664,95664,540,<right>,<right>,1,1
105-2-1,T,9,1,R,1,96216,2250,98470,98675,98675,429,<right>,<right>,1,1
105-2-1,T,10,-1,U,2,99125,2250,101379,101584,101585,615,<up>,<up>,1,1
105-2-1,T,11,1,L,1,102213,2000,104218,104423,104424,510,<left>,<left>,1,1
105-2-1,T,12,1,U,1,104953,1500,106459,106666,106666,533,<up>,<up>,1,1
105-2-1,T,13,1,U,2,107218,2000,109223,109430,109430,544,<up>,<up>,1,1
105-2-1,T,14,-1,R,2,109987,2250,112243,112450,112450,571,<right>,<right>,1,1
105-2-1,T,15,-1,R,1,113034,2500,115538,115743,115743,534,<right>,<right>,1,1
105-2-1,T,16,-1,L,2,116291,1750,118046,118253,118253,517,<left>,<left>,1,1
105-2-1,T,17,1,R,1,118789,3250,122046,122253,122253,493,<right>,<right>,1,1
105-2-1,T,18,1,D,1,122766,3000,125771,125977,125977,549,<down>,<down>,1,1
105-2-1,T,19,1,D,2,126545,2000,128550,128755,128756,674,<down>,<down>,1,1
105-2-1,T,20,-1,U,1,129443,3500,132948,133153,133153,531,<up>,<up>,1,1
105-2-1,T,21,1,L,1,133695,2500,136201,136407,136408,465,<left>,<left>,1,1
105-2-1,T,22,1,L,2,136887,3000,139891,140096,140097,559,<left>,<left>,1,1
105-2-1,T,23,1,R,1,140678,2250,142933,143140,143140,671,<right>,<right>,1,1
105-2-1,T,24,1,L,1,143827,2000,145832,146037,146038,532,<left>,<left>,1,1
105-2-1,T,25,1,U,1,146586,3000,149592,149799,149799,467,<up>,<up>,1,1
105-2-1,T,26,-1,R,1,150282,2750,153037,153242,153243,463,<right>,<right>,1,1
105-2-1,T,27,-1,L,1,153720,2000,155725,155932,155932,494,<left>,<left>,1,1
105-2-1,T,28,1,R,1,156436,2000,158441,158646,158646,495,<right>,<right>,1,1
105-2-1,T,29,1,D,2,159156,2000,161161,161368,161368,673,<down>,<left>,0,0
105-2-1,T,30,1,D,1,162055,3500,165560,165767,165767,487,<down>,<down>,1,1
105-2-1,T,31,1,U,1,166269,2750,169023,169228,169228,489,<up>,<up>,1,1
105-2-1,T,32,1,R,1,169732,1500,171236,171443,171444,495,<right>,<right>,1,1
105-2-1,T,33,1,R,1,171957,3500,175463,175669,175670,445,<right>,<right>,1,1
105-2-1,T,34,-1,L,2,176131,2000,178135,178341,178342,443,<left>,<right>,0,1
105-2-1,T,35,1,U,1,178804,2250,181060,181265,181266,467,<up>,<up>,1,1
105-2-1,T,36,1,R,2,181748,2250,184003,184211,184211,750,<right>,<right>,1,1
105-2-1,T,37,1,L,2,184976,2000,186981,187187,187187,473,<left>,<right>,0,1
105-2-1,T,38,1,U,2,187678,2500,190183,190390,190390,496,<up>,<up>,1,1
105-2-1,T,39,-1,L,1,190904,2500,193408,193613,193614,473,<left>,<left>,1,1
105-2-1,T,40,1,D,1,194101,3000,197106,197313,197314,562,<down>,<down>,1,1
105-2-1,T,41,1,L,1,197895,3000,200900,201107,201107,489,<left>,<left>,1,1
105-2-1,T,42,-1,U,1,201613,2500,204117,204323,204324,515,<up>,<up>,1,1
105-2-1,T,43,-1,R,2,204854,2500,207358,207563,207564,499,<right>,<left>,0,1
105-2-1,T,44,1,L,1,208074,1500,209580,209785,209786,512,<left>,<left>,1,1
105-2-1,T,45,-1,L,1,210308,3500,213812,214018,214018,530,<left>,<left>,1,1
105-2-1,T,46,1,L,1,214562,3500,218066,218273,218274,530,<left>,<left>,1,1
105-2-1,T,47,1,D,2,218819,2750,221573,221778,221779,580,<down>,<down>,1,1
105-2-1,T,48,-1,D,2,222373,3250,225629,225834,225835,555,<down>,<down>,1,1
105-2-1,T,49,1,D,1,226403,3250,229658,229865,229865,479,<down>,<down>,1,1
105-2-1,T,50,1,L,1,230363,2000,232369,232571,232571,477,<left>,<left>,1,1
