subnum,stimtype,block,trialtype,trial,condition,stim,dim1,dim2,time0,resp1,rt1,corr1,resp2,rt2,corr2,tooslow
204-2-4,4,1,PRACTICE,-25,1,3,1,0,8669,1,576,1,NA,0,0,0
204-2-4,4,1,PRACTICE,-24,1,2,0,1,10523,2,377,1,NA,0,0,0
204-2-4,4,1,PRACTICE,-23,1,4,0,0,11788,2,311,1,NA,0,0,0
204-2-4,4,1,PRACTICE,-22,1,1,1,1,13219,1,350,1,NA,0,0,0
204-2-4,4,1,PRACTICE,-21,1,1,1,1,14568,1,338,1,NA,0,0,0
204-2-4,4,1,PRACTICE,-20,1,2,0,1,15935,2,348,1,NA,0,0,0
204-2-4,4,1,PRACTICE,-19,1,3,1,0,17379,1,434,1,NA,0,0,0
204-2-4,4,1,PRACTICE,-18,1,4,0,0,19133,2,293,1,NA,0,0,0
204-2-4,4,1,TEST,1,1,3,1,0,20331,1,374,1,NA,0,0,0
204-2-4,4,1,TEST,2,1,1,1,1,21669,1,316,1,NA,0,0,0
204-2-4,4,1,TEST,3,1,2,0,1,22834,2,310,1,NA,0,0,0
204-2-4,4,1,TEST,4,1,4,0,0,24005,2,377,1,NA,0,0,0
204-2-4,4,1,TEST,5,1,2,0,1,25410,2,297,1,NA,0,0,0
204-2-4,4,1,TEST,6,1,4,0,0,26613,2,291,1,NA,0,0,0
204-2-4,4,1,TEST,7,1,3,1,0,27828,1,370,1,NA,0,0,0
204-2-4,4,1,TEST,8,1,1,1,1,29051,1,326,1,NA,0,0,0
204-2-4,4,1,TEST,9,1,4,0,0,30399,2,358,1,NA,0,0,0
204-2-4,4,1,TEST,10,1,3,1,0,31975,1,280,1,NA,0,0,0
204-2-4,4,1,TEST,11,1,2,0,1,33281,2,362,1,NA,0,0,0
204-2-4,4,1,TEST,12,1,1,1,1,34822,1,331,1,NA,0,0,0
204-2-4,4,1,TEST,13,1,2,0,1,36108,2,284,1,NA,0,0,0
204-2-4,4,1,TEST,14,1,3,1,0,37663,1,318,1,NA,0,0,0
204-2-4,4,1,TEST,15,1,1,1,1,39027,2,272,0,NA,0,0,0
204-2-4,4,1,TEST,16,1,4,0,0,41116,2,394,1,NA,0,0,0
204-2-4,4,1,TEST,17,1,2,0,1,42692,2,348,1,NA,0,0,0
204-2-4,4,1,TEST,18,1,1,1,1,43916,2,268,0,NA,0,0,0
204-2-4,4,1,TEST,19,1,4,0,0,45872,2,328,1,NA,0,0,0
204-2-4,4,1,TEST,20,1,3,1,0,47233,1,373,1,NA,0,0,0
204-2-4,4,1,TEST,21,1,4,0,0,48692,2,329,1,NA,0,0,0
204-2-4,4,1,TEST,22,1,1,1,1,50148,1,355,1,NA,0,0,0
204-2-4,4,1,TEST,23,1,2,0,1,51717,2,285,1,NA,0,0,0
204-2-4,4,1,TEST,24,1,3,1,0,53153,1,287,1,NA,0,0,0
204-2-4,4,1,TEST,25,1,2,0,1,54493,2,419,1,NA,0,0,0
204-2-4,4,2,PRACTICE,-25,2,1,1,1,59006,NA,0,0,9,470,1,0
204-2-4,4,2,PRACTICE,-24,2,2,0,1,60516,NA,0,0,9,655,1,0
204-2-4,4,2,PRACTICE,-23,2,3,1,0,62413,NA,0,0,0,384,1,0
204-2-4,4,2,PRACTICE,-22,2,4,0,0,63820,NA,0,0,0,368,1,0
204-2-4,4,2,PRACTICE,-21,2,4,0,0,65258,NA,0,0,0,379,1,0
204-2-4,4,2,PRACTICE,-20,2,1,1,1,66561,NA,0,0,9,390,1,0
204-2-4,4,2,PRACTICE,-19,2,3,1,0,68093,NA,0,0,0,346,1,0
204-2-4,4,2,PRACTICE,-18,2,2,0,1,69526,NA,0,0,9,377,1,0
204-2-4,4,2,TEST,1,2,2,0,1,70777,NA,0,0,9,370,1,0
204-2-4,4,2,TEST,2,2,3,1,0,72253,NA,0,0,0,379,1,0
204-2-4,4,2,TEST,3,2,1,1,1,73659,NA,0,0,9,444,1,0
204-2-4,4,2,TEST,4,2,4,0,0,75113,NA,0,0,0,354,1,0
204-2-4,4,2,TEST,5,2,3,1,0,76320,NA,0,0,0,394,1,0
204-2-4,4,2,TEST,6,2,1,1,1,77835,NA,0,0,9,314,1,0
204-2-4,4,2,TEST,7,2,4,0,0,79270,NA,0,0,0,329,1,0
204-2-4,4,2,TEST,8,2,2,0,1,80498,NA,0,0,9,336,1,0
204-2-4,4,2,TEST,9,2,3,1,0,81883,NA,0,0,0,618,1,0
204-2-4,4,2,TEST,10,2,2,0,1,83435,NA,0,0,9,316,1,0
204-2-4,4,2,TEST,11,2,1,1,1,84724,NA,0,0,9,399,1,0
204-2-4,4,2,TEST,12,2,4,0,0,86050,NA,0,0,0,404,1,0
204-2-4,4,2,TEST,13,2,3,1,0,87608,NA,0,0,0,458,1,0
204-2-4,4,2,TEST,14,2,1,1,1,89223,NA,0,0,9,374,1,0
204-2-4,4,2,TEST,15,2,2,0,1,90555,NA,0,0,9,386,1,0
204-2-4,4,2,TEST,16,2,4,0,0,92177,NA,0,0,0,398,1,0
204-2-4,4,2,TEST,17,2,1,1,1,93835,NA,0,0,9,328,1,0
204-2-4,4,2,TEST,18,2,4,0,0,95272,NA,0,0,0,337,1,0
204-2-4,4,2,TEST,19,2,2,0,1,96634,NA,0,0,9,328,1,0
204-2-4,4,2,TEST,20,2,3,1,0,97868,NA,0,0,0,403,1,0
204-2-4,4,2,TEST,21,2,4,0,0,99410,NA,0,0,0,322,1,0
204-2-4,4,2,TEST,22,2,2,0,1,100576,NA,0,0,9,416,1,0
204-2-4,4,2,TEST,23,2,1,1,1,102296,NA,0,0,9,363,1,0
204-2-4,4,2,TEST,24,2,3,1,0,103646,NA,0,0,0,370,1,0
204-2-4,4,2,TEST,25,2,4,0,0,105097,NA,0,0,0,341,1,0
204-2-4,4,3,PRACTICE,-25,3,1,1,1,110180,1,484,1,9,504,1,0
204-2-4,4,3,PRACTICE,-24,3,3,1,0,111634,1,477,1,0,499,1,0
204-2-4,4,3,PRACTICE,-23,3,4,0,0,113247,2,412,1,0,408,1,0
204-2-4,4,3,PRACTICE,-22,3,2,0,1,114759,2,437,1,9,447,1,0
204-2-4,4,3,PRACTICE,-21,3,2,0,1,116546,2,427,1,9,399,1,0
204-2-4,4,3,PRACTICE,-20,3,1,1,1,117828,1,436,1,9,470,1,0
204-2-4,4,3,PRACTICE,-19,3,3,1,0,119180,1,463,1,0,483,1,0
204-2-4,4,3,PRACTICE,-18,3,4,0,0,120702,2,370,1,0,400,1,0
204-2-4,4,3,TEST,1,3,3,1,0,122309,1,385,1,0,389,1,0
204-2-4,4,3,TEST,2,3,2,0,1,123659,2,501,1,9,505,1,0
204-2-4,4,3,TEST,3,3,4,0,0,125442,2,381,1,0,393,1,0
204-2-4,4,3,TEST,4,3,1,1,1,127136,1,359,1,9,393,1,0
204-2-4,4,3,TEST,5,3,3,1,0,128377,1,404,1,0,424,1,0
204-2-4,4,3,TEST,6,3,1,1,1,129797,1,420,1,9,428,1,0
204-2-4,4,3,TEST,7,3,4,0,0,131257,2,388,1,0,394,1,0
204-2-4,4,3,TEST,8,3,2,0,1,132823,2,466,1,9,636,1,0
204-2-4,4,3,TEST,9,3,4,0,0,134630,2,338,1,0,363,1,0
204-2-4,4,3,TEST,10,3,1,1,1,136242,1,361,1,9,371,1,0
204-2-4,4,3,TEST,11,3,3,1,0,137700,1,529,1,0,554,1,0
204-2-4,4,3,TEST,12,3,2,0,1,139456,2,337,1,9,332,1,0
204-2-4,4,3,TEST,13,3,1,1,1,140995,1,332,1,0,339,0,0
204-2-4,4,3,TEST,14,3,4,0,0,142708,2,364,1,0,370,1,0
204-2-4,4,3,TEST,15,3,3,1,0,144040,1,528,1,0,419,1,0
204-2-4,4,3,TEST,16,3,2,0,1,145652,2,380,1,9,388,1,0
204-2-4,4,3,TEST,17,3,4,0,0,147228,2,350,1,0,366,1,0
204-2-4,4,3,TEST,18,3,1,1,1,148830,1,336,1,9,348,1,0
204-2-4,4,3,TEST,19,3,3,1,0,150213,1,441,1,0,445,1,0
204-2-4,4,3,TEST,20,3,2,0,1,151669,2,382,1,9,398,1,0
204-2-4,4,3,TEST,21,3,4,0,0,153119,1,312,0,0,350,1,0
204-2-4,4,3,TEST,22,3,3,1,0,155002,1,456,1,0,438,1,0
204-2-4,4,3,TEST,23,3,1,1,1,156513,1,373,1,9,376,1,0
204-2-4,4,3,TEST,24,3,2,0,1,157931,2,407,1,9,473,1,0
204-2-4,4,3,TEST,25,3,1,1,1,159252,1,530,1,9,535,1,0
