subnum,block,trial,direction,stim,offset,fixationstart,delaytime,promptstart,arrowstart,maskstart,rt,corresp,resp,corr,bivalentcorr
201-4-1,P,0,-1,R,2,7543,3500,11048,11554,11555,440,<right>,<right>,1,1
201-4-1,P,0,-1,U,1,12019,1750,13774,14279,14279,399,<up>,<up>,1,1
201-4-1,P,0,1,R,1,14700,3500,18204,18709,18710,395,<right>,<right>,1,1
201-4-1,P,0,1,L,2,19127,1500,20632,21138,21139,549,<left>,<left>,1,1
201-4-1,P,0,1,L,1,21712,2250,23967,24473,24474,441,<left>,<left>,1,1
201-4-1,P,0,1,D,1,24938,3000,27944,28450,28450,496,<down>,<down>,1,1
201-4-1,P,0,1,U,1,28968,2000,30974,31481,31481,402,<up>,<up>,1,1
201-4-1,P,0,-1,L,2,31910,3250,35164,35669,35670,450,<left>,<right>,0,1
201-4-1,P,0,-1,L,2,44219,1750,45975,46180,46181,548,<left>,<left>,1,1
201-4-1,P,0,-1,D,1,46741,2750,49497,49704,49704,517,<down>,<down>,1,1
201-4-1,P,0,-1,R,1,50231,2000,52236,52442,52443,391,<right>,<left>,0,1
201-4-1,P,0,-1,D,1,52858,1750,54613,54818,54819,523,<down>,<down>,1,1
201-4-1,P,0,-1,L,1,55359,3500,58865,59072,59072,390,<left>,<left>,1,1
201-4-1,P,0,-1,L,2,59484,3250,62739,62946,62947,550,<left>,<left>,1,1
201-4-1,P,0,-1,R,1,63511,2000,65515,65720,65721,389,<right>,<left>,0,1
201-4-1,P,0,1,R,2,66120,3250,69375,69581,69581,484,<right>,<right>,1,1
201-4-1,T,1,1,R,2,73527,1750,75281,75488,75489,492,<right>,<left>,0,1
201-4-1,T,2,-1,D,2,75993,2750,78749,78955,78955,526,<down>,<down>,1,1
201-4-1,T,3,1,D,2,79494,3000,82499,82704,82705,527,<down>,<down>,1,1
201-4-1,T,4,1,R,1,83242,2750,85998,86204,86204,515,<right>,<right>,1,1
201-4-1,T,5,1,R,1,86734,3000,89739,89945,89945,411,<right>,<right>,1,1
201-4-1,T,6,-1,D,2,90366,2500,92871,93076,93077,567,<down>,<down>,1,1
201-4-1,T,7,-1,R,2,93655,3500,97160,97366,97367,441,<right>,<left>,0,1
201-4-1,T,8,-1,L,2,97820,3000,100825,101032,101032,561,<left>,<right>,0,1
201-4-1,T,9,-1,U,1,101610,3500,105115,105322,105323,495,<up>,<up>,1,1
201-4-1,T,10,-1,D,2,105834,2750,108589,108796,108796,582,<down>,<down>,1,1
201-4-1,T,11,1,L,2,109390,3250,112645,112852,112852,557,<left>,<left>,1,1
201-4-1,T,12,1,U,1,113428,2000,115434,115640,115640,503,<up>,<up>,1,1
201-4-1,T,13,1,D,2,116166,2500,118671,118879,118879,574,<down>,<down>,1,1
201-4-1,T,14,1,U,1,119468,1750,121225,121431,121431,509,<up>,<up>,1,1
201-4-1,T,15,-1,L,1,121965,2000,123970,124177,124177,377,<left>,<left>,1,1
201-4-1,T,16,-1,R,1,124571,3000,127577,127783,127784,381,<right>,<left>,0,1
201-4-1,T,17,-1,R,2,128188,1750,129944,130151,130151,502,<right>,<right>,1,1
201-4-1,T,18,-1,L,2,130666,3000,133671,133878,133878,605,<left>,<left>,1,1
201-4-1,T,19,1,D,2,134495,1750,136249,136457,136457,729,<down>,<down>,1,1
201-4-1,T,20,1,D,2,137197,3500,140702,140908,140908,733,<down>,<down>,1,1
201-4-1,T,21,-1,L,2,141654,3000,144660,144867,144867,569,<left>,<left>,1,1
201-4-1,T,22,1,L,1,145448,2500,147953,148160,148160,504,<left>,<left>,1,1
201-4-1,T,23,-1,D,1,148680,2750,151435,151640,151641,492,<down>,<down>,1,1
201-4-1,T,24,1,U,2,152148,3000,155153,155358,155359,649,<up>,<up>,1,1
201-4-1,T,25,1,D,1,156025,3000,159029,159236,159237,513,<down>,<down>,1,1
201-4-1,T,26,1,U,1,159765,2250,162019,162226,162227,414,<up>,<up>,1,1
201-4-1,T,27,1,D,1,162651,3250,165907,166112,166113,505,<down>,<down>,1,1
201-4-1,T,28,1,D,2,166629,2750,169383,169588,169589,546,<down>,<down>,1,1
201-4-1,T,29,-1,D,1,170153,1500,171659,171864,171865,492,<down>,<down>,1,1
201-4-1,T,30,-1,D,2,172369,2000,174373,174581,174581,536,<down>,<down>,1,1
201-4-1,T,31,1,U,2,175133,2250,177388,177596,177596,628,<up>,<up>,1,1
201-4-1,T,32,-1,U,1,178238,2000,180244,180451,180452,456,<up>,<up>,1,1
201-4-1,T,33,-1,R,2,180924,2000,182929,183135,183135,557,<right>,<right>,1,1
201-4-1,T,34,1,R,2,183703,1750,185457,185664,185665,638,<right>,<right>,1,1
201-4-1,T,35,1,R,1,186319,3250,189574,189782,189782,425,<right>,<right>,1,1
201-4-1,T,36,1,R,2,190230,1750,191986,192193,192193,409,<right>,<right>,1,1
201-4-1,T,37,-1,L,2,192618,2750,195372,195577,195578,475,<left>,<left>,1,1
201-4-1,T,38,-1,L,2,196068,2500,198573,198778,198779,527,<left>,<left>,1,1
201-4-1,T,39,1,L,2,199320,2000,201325,201532,201532,468,<left>,<left>,1,1
201-4-1,T,40,1,U,1,202021,2750,204776,204983,204983,520,<up>,<up>,1,1
201-4-1,T,41,1,R,2,205522,1500,207026,207231,207232,500,<right>,<right>,1,1
201-4-1,T,42,1,R,2,207744,1500,209248,209454,209455,560,<right>,<right>,1,1
201-4-1,T,43,1,D,2,210029,1750,211784,211992,211992,560,<down>,<down>,1,1
201-4-1,T,44,-1,U,1,212565,2250,214821,215028,215028,513,<up>,<up>,1,1
201-4-1,T,45,1,D,2,215561,2750,218316,218522,218523,677,<down>,<down>,1,1
201-4-1,T,46,-1,R,2,219215,3500,222721,222928,222928,551,<right>,<right>,1,1
201-4-1,T,47,1,L,2,223494,3500,227000,227205,227205,510,<left>,<right>,0,1
201-4-1,T,48,-1,R,2,227737,3000,230743,230950,230951,522,<right>,<right>,1,1
201-4-1,T,49,-1,L,1,231500,1500,233005,233212,233212,401,<left>,<left>,1,1
201-4-1,T,50,1,R,2,233636,3000,236642,236847,236848,549,<right>,<right>,1,1
