subnum,block,trial,direction,stim,offset,fixationstart,delaytime,promptstart,arrowstart,maskstart,rt,corresp,resp,corr,bivalentcorr
107-2-3,P,0,1,L,2,9546,2250,11803,12310,12311,671,<left>,<left>,1,1
107-2-3,P,0,-1,D,1,12997,2250,15253,15759,15759,611,<down>,<down>,1,1
107-2-3,P,0,1,L,2,16389,2750,19145,19651,19652,696,<left>,<left>,1,1
107-2-3,P,0,1,D,1,20362,3250,23617,24125,24126,540,<down>,<down>,1,1
107-2-3,P,0,-1,L,2,24691,2250,26946,27453,27453,583,<left>,<left>,1,1
107-2-3,P,0,1,U,2,28052,2750,30809,31316,31316,638,<up>,<up>,1,1
107-2-3,P,0,1,R,1,31967,3500,35472,35977,35978,594,<right>,<right>,1,1
107-2-3,P,0,-1,L,2,36590,3250,39845,40351,40351,621,<left>,<left>,1,1
107-2-3,P,0,-1,L,2,44510,1750,46267,46473,46473,520,<left>,<left>,1,1
107-2-3,P,0,-1,U,1,47010,3250,50265,50471,50471,544,<up>,<up>,1,1
107-2-3,P,0,1,D,1,51036,3000,54042,54249,54250,566,<down>,<down>,1,1
107-2-3,P,0,1,D,1,54827,2000,56831,57038,57038,526,<down>,<down>,1,1
107-2-3,P,0,1,L,1,57578,3250,60833,61040,61041,473,<left>,<left>,1,1
107-2-3,P,0,1,U,1,61528,1750,63283,63490,63490,514,<up>,<up>,1,1
107-2-3,P,0,1,R,1,64016,2250,66271,66477,66478,580,<right>,<right>,1,1
107-2-3,P,0,1,D,1,67074,2500,69579,69785,69786,570,<down>,<down>,1,1
107-2-3,T,1,1,R,1,75397,3500,78902,79109,79109,494,<right>,<right>,1,1
107-2-3,T,2,1,U,1,79614,2250,81869,82076,82076,551,<up>,<up>,1,1
107-2-3,T,3,1,L,1,82650,3500,86157,86363,86363,472,<left>,<left>,1,1
107-2-3,T,4,-1,U,2,86848,1750,88603,88809,88810,619,<up>,<down>,0,1
107-2-3,T,5,-1,D,2,89444,3250,92699,92905,92905,689,<down>,<down>,1,1
107-2-3,T,6,1,D,2,93607,2000,95612,95819,95819,699,<down>,<down>,1,1
107-2-3,T,7,1,D,2,96531,1750,98287,98493,98494,693,<down>,<down>,1,1
107-2-3,T,8,1,L,1,99200,2250,101455,101661,101661,582,<left>,<left>,1,1
107-2-3,T,9,-1,D,1,102254,2750,105010,105216,105217,556,<down>,<down>,1,1
107-2-3,T,10,1,U,2,105786,1500,107291,107497,107497,732,<up>,<up>,1,1
107-2-3,T,11,-1,U,1,108243,1750,109998,110204,110205,536,<up>,<up>,1,1
107-2-3,T,12,-1,L,2,110754,2250,113009,113215,113216,756,<left>,<left>,1,1
107-2-3,T,13,1,U,1,113985,3500,117491,117697,117697,517,<up>,<up>,1,1
107-2-3,T,14,1,R,1,118227,2750,120983,121189,121190,525,<right>,<right>,1,1
107-2-3,T,15,1,R,1,121728,2250,123983,124189,124190,506,<right>,<right>,1,1
107-2-3,T,16,-1,D,2,124708,1750,126464,126671,126671,634,<down>,<down>,1,1
107-2-3,T,17,1,U,2,127319,2000,129323,129530,129530,725,<up>,<up>,1,1
107-2-3,T,18,1,R,1,130267,2250,132523,132729,132730,495,<right>,<right>,1,1
107-2-3,T,19,1,R,2,133242,3500,136748,136955,136955,648,<right>,<right>,1,1
107-2-3,T,20,-1,U,1,137618,3000,140624,140830,140830,518,<up>,<up>,1,1
107-2-3,T,21,-1,U,2,141359,2250,143614,143821,143822,745,<up>,<up>,1,1
107-2-3,T,22,-1,D,1,144581,3500,148086,148292,148293,670,<down>,<down>,1,1
107-2-3,T,23,1,R,2,148976,2500,151482,151688,151688,657,<right>,<right>,1,1
107-2-3,T,24,1,R,2,152358,3000,155364,155570,155571,591,<right>,<right>,1,1
107-2-3,T,25,-1,L,2,156173,1750,157927,158136,158136,868,<left>,<right>,0,1
107-2-3,T,26,-1,U,2,159018,3500,162523,162730,162730,774,<up>,<up>,1,1
107-2-3,T,27,1,R,2,163514,2500,166020,166227,166227,614,<right>,<right>,1,1
107-2-3,T,28,1,U,2,166855,3000,169860,170066,170067,705,<up>,<up>,1,1
107-2-3,T,29,-1,U,2,170785,3500,174290,174499,174499,1232,<up>,<up>,1,1
107-2-3,T,30,1,R,1,175745,2250,178000,178206,178207,763,<right>,<right>,1,1
107-2-3,T,31,1,U,1,178981,3500,182487,182693,182693,585,<up>,<up>,1,1
107-2-3,T,32,-1,D,1,183296,2000,185300,185506,185507,631,<down>,<down>,1,1
107-2-3,T,33,1,U,2,186155,3250,189411,189616,189616,641,<up>,<up>,1,1
107-2-3,T,34,-1,D,1,190272,3250,193528,193733,193733,549,<down>,<down>,1,1
107-2-3,T,35,-1,R,2,194300,3000,197305,197512,197512,775,<right>,<right>,1,1
107-2-3,T,36,1,U,2,198301,2750,201056,201262,201262,589,<up>,<up>,1,1
107-2-3,T,37,1,U,2,201867,3500,205373,205580,205580,558,<up>,<up>,1,1
107-2-3,T,38,-1,L,1,206148,1500,207653,207859,207860,589,<left>,<left>,1,1
107-2-3,T,39,-1,L,1,208461,1500,209967,210174,210174,500,<left>,<left>,1,1
107-2-3,T,40,1,U,1,210690,2000,212696,212903,212904,502,<up>,<up>,1,1
107-2-3,T,41,1,U,1,213420,2250,215675,215881,215881,469,<up>,<up>,1,1
107-2-3,T,42,1,D,2,216363,1750,218120,218326,218327,813,<down>,<up>,0,1
107-2-3,T,43,-1,U,1,219151,3000,222157,222364,222364,469,<up>,<up>,1,1
107-2-3,T,44,1,U,2,222847,2500,225353,225559,225560,576,<up>,<up>,1,1
107-2-3,T,45,-1,R,2,226151,3000,229157,229363,229363,683,<right>,<right>,1,1
107-2-3,T,46,1,L,1,230060,1500,231566,231772,231773,549,<left>,<left>,1,1
107-2-3,T,47,-1,R,2,232333,2750,235088,235294,235295,742,<right>,<left>,0,1
107-2-3,T,48,1,L,2,236047,1500,237552,237760,237761,640,<left>,<right>,0,1
107-2-3,T,49,1,D,1,238412,3000,241418,241624,241624,631,<down>,<down>,1,1
107-2-3,T,50,-1,R,1,242267,3000,245273,245480,245480,531,<right>,<right>,1,1
