subnum,block,trial,direction,stim,offset,fixationstart,delaytime,promptstart,arrowstart,maskstart,rt,corresp,resp,corr,bivalentcorr
114-2-4,P,0,-1,D,2,4985,3500,8490,8995,8995,604,<down>,<down>,1,1
114-2-4,P,0,1,L,1,9616,1500,11121,11627,11627,1819,<left>,<left>,1,1
114-2-4,P,0,1,R,1,13459,1500,14964,15469,15470,490,<right>,<right>,1,1
114-2-4,P,0,-1,R,1,15982,3000,18987,19492,19493,543,<right>,<right>,1,1
114-2-4,P,0,-1,L,2,20064,2750,22820,23326,23326,717,<left>,<up>,0,0
114-2-4,P,0,-1,D,2,24061,2500,26566,27072,27073,1894,<down>,<down>,1,1
114-2-4,P,0,-1,D,1,28978,2000,30983,31488,31489,515,<down>,<down>,1,1
114-2-4,P,0,-1,U,1,32031,3500,35536,36041,36042,557,<up>,<up>,1,1
114-2-4,P,0,1,D,1,37962,1750,39717,39924,39924,736,<down>,<down>,1,1
114-2-4,P,0,1,U,2,40671,3500,44177,44383,44384,563,<up>,<up>,1,1
114-2-4,P,0,-1,U,2,44962,1500,46467,46674,46674,614,<up>,<up>,1,1
114-2-4,P,0,1,R,2,47299,3500,50804,51010,51010,525,<right>,<right>,1,1
114-2-4,P,0,1,L,2,51547,2250,53804,54013,54014,514,<left>,<right>,0,1
114-2-4,P,0,-1,L,2,54539,1750,56295,56500,56501,985,<left>,<left>,1,1
114-2-4,P,0,1,R,2,57495,2750,60251,60456,60457,441,<right>,<right>,1,1
114-2-4,P,0,-1,R,1,60915,3500,64421,64628,64628,750,<right>,<right>,1,1
114-2-4,T,1,-1,D,1,67026,2500,69531,69738,69739,553,<down>,<down>,1,1
114-2-4,T,2,-1,U,2,70304,1750,72059,72265,72265,667,<up>,<up>,1,1
114-2-4,T,3,-1,L,2,72947,1750,74702,74909,74910,913,<left>,<left>,1,1
114-2-4,T,4,1,R,2,75834,3250,79090,79297,79297,554,<right>,<right>,1,1
114-2-4,T,5,-1,L,2,79862,3000,82867,83073,83073,634,<left>,<left>,1,1
114-2-4,T,6,1,D,1,83721,2000,85727,85934,85934,518,<down>,<down>,1,1
114-2-4,T,7,-1,U,1,86462,2750,89217,89424,89425,467,<up>,<up>,1,1
114-2-4,T,8,-1,D,1,89904,2500,92409,92614,92615,465,<down>,<down>,1,1
114-2-4,T,9,-1,L,2,93096,3500,96602,96808,96808,592,<left>,<left>,1,1
114-2-4,T,10,-1,D,2,97413,3250,100668,100873,100874,546,<down>,<down>,1,1
114-2-4,T,11,1,D,2,101431,2750,104185,104393,104393,698,<down>,<down>,1,1
114-2-4,T,12,1,L,2,105105,2000,107110,107317,107317,610,<left>,<left>,1,1
114-2-4,T,13,-1,U,1,107937,3000,110942,111149,111149,488,<up>,<up>,1,1
114-2-4,T,14,1,L,2,111649,2750,114405,114612,114612,596,<left>,<left>,1,1
114-2-4,T,15,1,U,2,115222,3250,118477,118684,118684,525,<up>,<up>,1,1
114-2-4,T,16,-1,U,1,119234,1500,120740,120947,120947,598,<up>,<up>,1,1
114-2-4,T,17,1,R,2,121555,2250,123810,124015,124016,517,<right>,<right>,1,1
114-2-4,T,18,1,U,2,124549,3000,127554,127761,127761,520,<up>,<up>,1,1
114-2-4,T,19,-1,R,1,128297,3500,131803,132010,132010,633,<right>,<right>,1,1
114-2-4,T,20,-1,L,1,132665,3250,135920,136126,136126,557,<left>,<left>,1,1
114-2-4,T,21,1,R,1,136695,2500,139200,139405,139406,441,<right>,<right>,1,1
114-2-4,T,22,1,U,1,139876,2250,142131,142336,142336,524,<up>,<up>,1,1
114-2-4,T,23,1,D,1,142878,2000,144884,145091,145091,415,<down>,<up>,0,1
114-2-4,T,24,1,L,1,145520,3250,148777,148982,148983,557,<left>,<left>,1,1
114-2-4,T,25,-1,L,1,149554,3500,153060,153267,153267,600,<left>,<left>,1,1
114-2-4,T,26,-1,D,1,153879,1500,155384,155590,155590,524,<down>,<down>,1,1
114-2-4,T,27,1,R,2,156131,2500,158636,158841,158842,565,<right>,<right>,1,1
114-2-4,T,28,1,L,2,159422,3000,162428,162634,162635,583,<left>,<left>,1,1
114-2-4,T,29,1,U,1,163233,1750,164988,165196,165196,507,<up>,<up>,1,1
114-2-4,T,30,-1,R,2,165716,2000,167722,167928,167928,564,<right>,<right>,1,1
114-2-4,T,31,1,R,2,168502,1750,170257,170464,170464,567,<right>,<right>,1,1
114-2-4,T,32,1,D,1,171044,2250,173300,173505,173506,554,<down>,<down>,1,1
114-2-4,T,33,-1,R,2,174074,1500,175579,175784,175785,617,<right>,<right>,1,1
114-2-4,T,34,1,L,2,176416,2500,178920,179126,179126,592,<left>,<left>,1,1
114-2-4,T,35,1,D,1,179735,3250,182990,183195,183196,581,<down>,<down>,1,1
114-2-4,T,36,-1,R,2,183790,2000,185795,186002,186002,593,<right>,<right>,1,1
114-2-4,T,37,1,R,2,186608,3500,190113,190318,190319,566,<right>,<right>,1,1
114-2-4,T,38,1,U,1,190898,2750,193654,193861,193862,543,<up>,<up>,1,1
114-2-4,T,39,-1,U,1,194419,3000,197424,197631,197631,552,<up>,<up>,1,1
114-2-4,T,40,1,D,1,198196,1500,199702,199908,199908,1155,<down>,<up>,0,1
114-2-4,T,41,-1,L,2,201075,2250,203331,203537,203537,570,<left>,<left>,1,1
114-2-4,T,42,-1,U,1,204135,2250,206391,206598,206598,496,<up>,<up>,1,1
114-2-4,T,43,-1,D,2,207105,2250,209361,209568,209568,601,<down>,<down>,1,1
114-2-4,T,44,1,R,1,210182,1750,211936,212143,212144,583,<right>,<right>,1,1
114-2-4,T,45,1,D,1,212741,2250,214997,215204,215204,586,<down>,<down>,1,1
114-2-4,T,46,-1,D,1,215803,1750,217559,217766,217767,541,<down>,<down>,1,1
114-2-4,T,47,1,D,2,218322,1750,220076,220282,220282,692,<down>,<down>,1,1
114-2-4,T,48,-1,D,2,220996,1750,222752,222959,222959,551,<down>,<down>,1,1
114-2-4,T,49,-1,D,1,223521,2000,225525,225733,225733,475,<down>,<down>,1,1
114-2-4,T,50,-1,U,2,226226,2500,228731,228936,228937,577,<up>,<up>,1,1
