subnum,block,trial,direction,stim,offset,fixationstart,delaytime,promptstart,arrowstart,maskstart,rt,corresp,resp,corr,bivalentcorr
204-2-1,P,0,-1,R,2,11452,2750,14207,14715,14716,591,<right>,<right>,1,1
204-2-1,P,0,1,U,2,15321,2250,17577,18084,18084,575,<up>,<up>,1,1
204-2-1,P,0,1,D,1,18686,2500,21191,21697,21697,590,<down>,<down>,1,1
204-2-1,P,0,1,U,2,22304,2000,24309,24818,24818,477,<up>,<up>,1,1
204-2-1,P,0,-1,R,2,25319,2000,27325,27833,27834,717,<right>,<right>,1,1
204-2-1,P,0,-1,L,2,28564,1750,30320,30826,30826,596,<left>,<left>,1,1
204-2-1,P,0,-1,D,2,31441,2500,33947,34453,34454,663,<down>,<down>,1,1
204-2-1,P,0,-1,U,2,35137,3000,38142,38650,38651,423,<up>,<up>,1,1
204-2-1,P,0,-1,L,1,41915,3250,45170,45376,45376,503,<left>,<left>,1,1
204-2-1,P,0,1,U,2,45892,2500,48397,48603,48603,523,<up>,<up>,1,1
204-2-1,P,0,-1,L,2,49142,2250,51398,51604,51605,542,<left>,<left>,1,1
204-2-1,P,0,-1,U,1,52156,2000,54160,54367,54367,445,<up>,<up>,1,1
204-2-1,P,0,-1,U,1,54828,2250,57083,57290,57290,432,<up>,<up>,1,1
204-2-1,P,0,-1,R,1,57738,2500,60245,60451,60452,462,<right>,<left>,0,1
204-2-1,P,0,-1,D,1,60927,3000,63932,64138,64139,631,<down>,<down>,1,1
204-2-1,P,0,-1,D,2,64784,2750,67539,67746,67746,569,<down>,<up>,0,1
204-2-1,T,1,-1,L,1,70979,2000,72985,73191,73192,515,<left>,<left>,1,1
204-2-1,T,2,1,U,2,73724,2750,76479,76685,76686,657,<up>,<up>,1,1
204-2-1,T,3,1,D,2,77355,3500,80861,81068,81068,1552,<down>,<down>,1,1
204-2-1,T,4,1,L,2,82633,2500,85138,85344,85345,620,<left>,<left>,1,1
204-2-1,T,5,1,D,1,85975,3250,89231,89437,89437,634,<down>,<down>,1,1
204-2-1,T,6,-1,R,1,90085,2750,92841,93047,93048,472,<right>,<right>,1,1
204-2-1,T,7,-1,U,1,93536,2750,96291,96497,96498,450,<up>,<up>,1,1
204-2-1,T,8,1,R,2,96964,1500,98469,98675,98676,551,<right>,<right>,1,1
204-2-1,T,9,1,L,1,99242,1750,100998,101205,101205,594,<left>,<left>,1,1
204-2-1,T,10,-1,R,2,101811,3250,105066,105272,105273,652,<right>,<right>,1,1
204-2-1,T,11,-1,R,2,105945,3250,109201,109408,109408,557,<right>,<right>,1,1
204-2-1,T,12,-1,R,2,109982,3000,112987,113193,113194,524,<right>,<right>,1,1
204-2-1,T,13,1,D,2,113729,3500,117235,117441,117442,678,<down>,<down>,1,1
204-2-1,T,14,-1,U,2,118138,2000,120143,120350,120351,676,<up>,<up>,1,1
204-2-1,T,15,-1,L,1,121040,2750,123796,124002,124002,618,<left>,<left>,1,1
204-2-1,T,16,-1,L,1,124634,2750,127390,127597,127598,490,<left>,<left>,1,1
204-2-1,T,17,1,D,2,128100,3000,131107,131313,131313,700,<down>,<down>,1,1
204-2-1,T,18,-1,R,2,132031,3500,135536,135742,135743,534,<right>,<right>,1,1
204-2-1,T,19,-1,R,2,136292,2000,138297,138503,138503,533,<right>,<right>,1,1
204-2-1,T,20,1,R,1,139052,1750,140807,141013,141014,520,<right>,<right>,1,1
204-2-1,T,21,1,D,1,141550,1750,143305,143512,143513,632,<down>,<down>,1,1
204-2-1,T,22,1,D,1,144159,2000,146165,146371,146372,518,<down>,<down>,1,1
204-2-1,T,23,1,D,1,146904,2500,149409,149615,149615,571,<down>,<down>,1,1
204-2-1,T,24,-1,U,2,150200,2250,152455,152662,152662,575,<up>,<up>,1,1
204-2-1,T,25,-1,R,1,153254,2750,156010,156216,156217,484,<right>,<right>,1,1
204-2-1,T,26,-1,R,2,156713,2500,159218,159424,159424,586,<right>,<right>,1,1
204-2-1,T,27,1,L,2,160024,2000,162030,162236,162236,657,<left>,<left>,1,1
204-2-1,T,28,1,U,1,162905,3250,166160,166366,166367,584,<up>,<up>,1,1
204-2-1,T,29,-1,D,2,166965,2000,168970,169176,169177,635,<down>,<down>,1,1
204-2-1,T,30,1,R,2,169822,3500,173328,173534,173534,624,<right>,<right>,1,1
204-2-1,T,31,-1,D,1,174172,1500,175678,175887,175887,642,<down>,<down>,1,1
204-2-1,T,32,1,L,1,176541,2500,179046,179252,179253,543,<left>,<left>,1,1
204-2-1,T,33,-1,L,1,179808,3250,183065,183273,183273,547,<left>,<left>,1,1
204-2-1,T,34,1,R,1,183833,3000,186839,187046,187047,574,<right>,<right>,1,1
204-2-1,T,35,-1,U,1,187636,3250,190891,191097,191098,462,<up>,<up>,1,1
204-2-1,T,36,-1,R,1,191571,2750,194327,194534,194534,532,<right>,<right>,1,1
204-2-1,T,37,-1,R,2,195092,2500,197598,197804,197805,570,<right>,<right>,1,1
204-2-1,T,38,-1,R,1,198390,2750,201146,201352,201353,521,<right>,<right>,1,1
204-2-1,T,39,1,R,2,201891,3000,204897,205103,205103,609,<right>,<right>,1,1
204-2-1,T,40,1,D,2,205724,2500,208230,208437,208438,675,<down>,<down>,1,1
204-2-1,T,41,1,L,2,209125,2750,211881,212087,212088,665,<left>,<left>,1,1
204-2-1,T,42,-1,U,1,212767,3000,215772,215978,215979,557,<up>,<up>,1,1
204-2-1,T,43,-1,U,1,216551,2750,219308,219515,219516,474,<up>,<up>,1,1
204-2-1,T,44,-1,L,2,220001,2000,222007,222213,222214,601,<left>,<left>,1,1
204-2-1,T,45,1,R,2,222824,3500,226330,226536,226537,532,<right>,<right>,1,1
204-2-1,T,46,1,L,1,227084,1500,228589,228798,228798,577,<left>,<left>,1,1
204-2-1,T,47,-1,L,1,229397,3500,232902,233108,233108,447,<left>,<left>,1,1
204-2-1,T,48,-1,L,1,233572,2000,235577,235783,235784,430,<left>,<left>,1,1
204-2-1,T,49,-1,D,2,236230,2250,238487,238693,238693,746,<down>,<down>,1,1
204-2-1,T,50,-1,R,2,239451,2500,241957,242163,242164,591,<right>,<right>,1,1
