subnum,stimtype,block,trialtype,trial,condition,stim,dim1,dim2,time0,resp1,rt1,corr1,resp2,rt2,corr2,tooslow
100-1-3,4,1,PRACTICE,-25,1,4,0,0,56817,2,743,1,NA,0,0,0
100-1-3,4,1,PRACTICE,-24,1,3,1,0,58407,1,740,1,NA,0,0,0
100-1-3,4,1,PRACTICE,-23,1,2,0,1,60210,2,572,1,NA,0,0,0
100-1-3,4,1,PRACTICE,-22,1,1,1,1,61629,1,585,1,NA,0,0,0
100-1-3,4,1,PRACTICE,-21,1,2,0,1,63148,2,521,1,NA,0,0,0
100-1-3,4,1,PRACTICE,-20,1,1,1,1,64639,1,452,1,NA,0,0,0
100-1-3,4,1,PRACTICE,-19,1,4,0,0,65971,2,418,1,NA,0,0,0
100-1-3,4,1,PRACTICE,-18,1,3,1,0,67542,1,370,1,NA,0,0,0
100-1-3,4,1,TEST,1,1,1,1,1,68890,1,430,1,NA,0,0,0
100-1-3,4,1,TEST,2,1,4,0,0,70194,2,422,1,NA,0,0,0
100-1-3,4,1,TEST,3,1,3,1,0,71505,1,397,1,NA,0,0,0
100-1-3,4,1,TEST,4,1,2,0,1,72982,2,375,1,NA,0,0,0
100-1-3,4,1,TEST,5,1,3,1,0,74396,1,362,1,NA,0,0,0
100-1-3,4,1,TEST,6,1,4,0,0,75751,2,394,1,NA,0,0,0
100-1-3,4,1,TEST,7,1,1,1,1,77189,1,342,1,NA,0,0,0
100-1-3,4,1,TEST,8,1,2,0,1,78745,2,406,1,NA,0,0,0
100-1-3,4,1,TEST,9,1,3,1,0,80484,1,394,1,NA,0,0,0
100-1-3,4,1,TEST,10,1,1,1,1,81991,1,407,1,NA,0,0,0
100-1-3,4,1,TEST,11,1,4,0,0,83432,2,397,1,NA,0,0,0
100-1-3,4,1,TEST,12,1,2,0,1,85027,2,639,1,NA,0,0,0
100-1-3,4,1,TEST,13,1,4,0,0,86646,2,594,1,NA,0,0,0
100-1-3,4,1,TEST,14,1,1,1,1,88573,1,447,1,NA,0,0,0
100-1-3,4,1,TEST,15,1,2,0,1,89871,2,478,1,NA,0,0,0
100-1-3,4,1,TEST,16,1,3,1,0,91238,1,411,1,NA,0,0,0
100-1-3,4,1,TEST,17,1,1,1,1,92907,1,389,1,NA,0,0,0
100-1-3,4,1,TEST,18,1,2,0,1,94484,2,405,1,NA,0,0,0
100-1-3,4,1,TEST,19,1,3,1,0,95956,1,349,1,NA,0,0,0
100-1-3,4,1,TEST,20,1,4,0,0,97604,2,413,1,NA,0,0,0
100-1-3,4,1,TEST,21,1,2,0,1,99182,2,500,1,NA,0,0,0
100-1-3,4,1,TEST,22,1,4,0,0,100915,2,480,1,NA,0,0,0
100-1-3,4,1,TEST,23,1,3,1,0,102521,1,352,1,NA,0,0,0
100-1-3,4,1,TEST,24,1,1,1,1,103900,1,424,1,NA,0,0,0
100-1-3,4,1,TEST,25,1,4,0,0,105619,2,416,1,NA,0,0,0
100-1-3,4,2,PRACTICE,-25,2,4,0,0,116349,NA,0,0,0,1016,1,0
100-1-3,4,2,PRACTICE,-24,2,1,1,1,118311,NA,0,0,9,572,1,0
100-1-3,4,2,PRACTICE,-23,2,2,0,1,120129,NA,0,0,9,497,1,0
100-1-3,4,2,PRACTICE,-22,2,3,1,0,121671,NA,0,0,0,410,1,0
100-1-3,4,2,PRACTICE,-21,2,1,1,1,123131,NA,0,0,9,438,1,0
100-1-3,4,2,PRACTICE,-20,2,2,0,1,124634,NA,0,0,9,448,1,0
100-1-3,4,2,PRACTICE,-19,2,3,1,0,126038,NA,0,0,0,352,1,0
100-1-3,4,2,PRACTICE,-18,2,4,0,0,127551,NA,0,0,0,465,1,0
100-1-3,4,2,TEST,1,2,4,0,0,129071,NA,0,0,0,486,1,0
100-1-3,4,2,TEST,2,2,1,1,1,130756,NA,0,0,9,531,1,0
100-1-3,4,2,TEST,3,2,2,0,1,132293,NA,0,0,9,441,1,0
100-1-3,4,2,TEST,4,2,3,1,0,133628,NA,0,0,0,361,1,0
100-1-3,4,2,TEST,5,2,2,0,1,135025,NA,0,0,0,383,0,0
100-1-3,4,2,TEST,6,2,1,1,1,137219,NA,0,0,9,517,1,0
100-1-3,4,2,TEST,7,2,4,0,0,139031,NA,0,0,0,440,1,0
100-1-3,4,2,TEST,8,2,3,1,0,140412,NA,0,0,0,467,1,0
100-1-3,4,2,TEST,9,2,2,0,1,141828,NA,0,0,9,442,1,0
100-1-3,4,2,TEST,10,2,1,1,1,143403,NA,0,0,9,448,1,0
100-1-3,4,2,TEST,11,2,4,0,0,144833,NA,0,0,0,382,1,0
100-1-3,4,2,TEST,12,2,3,1,0,146125,NA,0,0,0,370,1,0
100-1-3,4,2,TEST,13,2,1,1,1,147388,NA,0,0,9,431,1,0
100-1-3,4,2,TEST,14,2,3,1,0,148667,NA,0,0,0,355,1,0
100-1-3,4,2,TEST,15,2,4,0,0,149855,NA,0,0,0,394,1,0
100-1-3,4,2,TEST,16,2,2,0,1,151158,NA,0,0,9,410,1,0
100-1-3,4,2,TEST,17,2,4,0,0,152728,NA,0,0,0,391,1,0
100-1-3,4,2,TEST,18,2,3,1,0,154136,NA,0,0,0,521,1,0
100-1-3,4,2,TEST,19,2,2,0,1,155823,NA,0,0,9,626,1,0
100-1-3,4,2,TEST,20,2,1,1,1,157635,NA,0,0,9,548,1,0
100-1-3,4,2,TEST,21,2,4,0,0,159308,NA,0,0,0,413,1,0
100-1-3,4,2,TEST,22,2,3,1,0,160619,NA,0,0,0,467,1,0
100-1-3,4,2,TEST,23,2,2,0,1,162352,NA,0,0,9,461,1,0
100-1-3,4,2,TEST,24,2,1,1,1,163807,NA,0,0,9,500,1,0
100-1-3,4,2,TEST,25,2,4,0,0,165272,NA,0,0,0,400,1,0
100-1-3,4,3,PRACTICE,-25,3,4,0,0,178252,NA,0,0,0,1073,1,1
100-1-3,4,3,PRACTICE,-24,3,2,0,1,184826,NA,0,0,9,2315,1,1
100-1-3,4,3,PRACTICE,-23,3,3,1,0,191216,2,2329,0,0,3725,1,0
100-1-3,4,3,PRACTICE,-22,3,1,1,1,196592,1,3169,1,9,3579,1,0
100-1-3,4,3,PRACTICE,-21,3,1,1,1,201149,1,712,1,9,954,1,0
100-1-3,4,3,PRACTICE,-20,3,4,0,0,203180,2,880,1,0,956,1,0
100-1-3,4,3,PRACTICE,-19,3,3,1,0,205126,1,935,1,0,945,1,0
100-1-3,4,3,PRACTICE,-18,3,2,0,1,207088,2,830,1,9,836,1,0
100-1-3,4,3,TEST,1,3,1,1,1,209104,1,641,1,9,645,1,0
100-1-3,4,3,TEST,2,3,3,1,0,210797,1,1332,1,0,1328,1,0
100-1-3,4,3,TEST,3,3,2,0,1,213449,2,1080,1,9,1210,1,0
100-1-3,4,3,TEST,4,3,4,0,0,215948,2,886,1,0,952,1,0
100-1-3,4,3,TEST,5,3,2,0,1,217969,2,788,1,9,902,1,0
100-1-3,4,3,TEST,6,3,1,1,1,219745,1,625,1,9,641,1,0
100-1-3,4,3,TEST,7,3,3,1,0,221527,1,662,1,0,666,1,0
100-1-3,4,3,TEST,8,3,4,0,0,223338,2,518,1,0,521,1,0
100-1-3,4,3,TEST,9,3,3,1,0,224742,1,659,1,0,663,1,0
100-1-3,4,3,TEST,10,3,4,0,0,226588,2,471,1,0,466,1,0
100-1-3,4,3,TEST,11,3,1,1,1,228316,1,514,1,9,510,1,0
100-1-3,4,3,TEST,12,3,2,0,1,229703,2,825,1,9,809,1,0
100-1-3,4,3,TEST,13,3,3,1,0,231533,1,630,1,0,635,1,0
100-1-3,4,3,TEST,14,3,4,0,0,233070,2,545,1,0,549,1,0
100-1-3,4,3,TEST,15,3,2,0,1,234507,2,578,1,9,583,1,0
100-1-3,4,3,TEST,16,3,1,1,1,236059,1,492,1,9,496,1,0
100-1-3,4,3,TEST,17,3,3,1,0,237704,1,492,1,0,478,1,0
100-1-3,4,3,TEST,18,3,4,0,0,239187,2,513,1,0,504,1,0
100-1-3,4,3,TEST,19,3,2,0,1,240781,2,562,1,9,566,1,0
100-1-3,4,3,TEST,20,3,1,1,1,242634,1,460,1,9,464,1,0
100-1-3,4,3,TEST,21,3,2,0,1,244107,2,826,1,9,830,1,0
100-1-3,4,3,TEST,22,3,4,0,0,245784,2,519,1,0,515,1,0
100-1-3,4,3,TEST,23,3,3,1,0,247343,1,993,1,0,997,1,0
100-1-3,4,3,TEST,24,3,1,1,1,249193,1,544,1,9,540,1,0
100-1-3,4,3,TEST,25,3,2,0,1,250632,2,698,1,9,706,1,0
