subnum,block,trial,direction,stim,offset,fixationstart,delaytime,promptstart,arrowstart,maskstart,rt,corresp,resp,corr,bivalentcorr
100-3-3,P,0,1,R,2,5756,3000,8760,9266,9266,1114,<right>,<right>,1,1
100-3-3,P,0,-1,U,2,10402,3000,13407,13912,13913,445,<up>,<up>,1,1
100-3-3,P,0,-1,D,1,14384,2250,16640,17146,17147,487,<down>,<down>,1,1
100-3-3,P,0,-1,D,1,17662,3500,21167,21672,21673,558,<down>,<down>,1,1
100-3-3,P,0,-1,L,2,22257,1750,24013,24520,24520,537,<left>,<left>,1,1
100-3-3,P,0,-1,R,2,25077,2500,27581,28089,28089,496,<right>,<right>,1,1
100-3-3,P,0,-1,L,1,28606,2750,31362,31867,31868,474,<left>,<left>,1,1
100-3-3,P,0,1,L,1,32365,3250,35621,36129,36129,535,<left>,<left>,1,1
100-3-3,P,0,-1,L,1,40485,2250,42743,42948,42948,505,<left>,<left>,1,1
100-3-3,P,0,1,L,1,43469,1500,44974,45181,45181,490,<left>,<left>,1,1
100-3-3,P,0,-1,U,2,45690,2750,48445,48652,48653,616,<up>,<up>,1,1
100-3-3,P,0,1,D,1,49286,3250,52541,52748,52748,647,<down>,<down>,1,1
100-3-3,P,0,-1,L,2,53424,2500,55929,56134,56135,593,<left>,<left>,1,1
100-3-3,P,0,-1,U,2,56754,3250,60009,60216,60217,561,<up>,<up>,1,1
100-3-3,P,0,-1,D,2,60796,2000,62802,63007,63008,662,<down>,<down>,1,1
100-3-3,P,0,1,U,2,63683,2250,65937,66142,66143,669,<up>,<up>,1,1
100-3-3,T,1,1,D,2,71659,3500,75164,75371,75371,642,<down>,<down>,1,1
100-3-3,T,2,-1,L,1,76030,2500,78536,78741,78742,540,<left>,<left>,1,1
100-3-3,T,3,-1,D,1,79298,2250,81555,81762,81762,600,<down>,<down>,1,1
100-3-3,T,4,-1,D,1,82376,2750,85131,85336,85337,514,<down>,<down>,1,1
100-3-3,T,5,1,D,1,85870,1750,87626,87831,87832,591,<down>,<down>,1,1
100-3-3,T,6,-1,D,2,88441,2500,90947,91152,91152,626,<down>,<down>,1,1
100-3-3,T,7,-1,R,2,91800,2250,94054,94259,94260,612,<right>,<right>,1,1
100-3-3,T,8,1,L,1,94887,1750,96642,96850,96850,531,<left>,<left>,1,1
100-3-3,T,9,1,L,2,97401,1750,99156,99363,99364,558,<left>,<left>,1,1
100-3-3,T,10,-1,U,1,99937,1750,101692,101897,101898,611,<up>,<up>,1,1
100-3-3,T,11,-1,R,1,102520,3250,105775,105980,105981,598,<right>,<right>,1,1
100-3-3,T,12,-1,D,1,106601,1500,108105,108310,108311,584,<down>,<down>,1,1
100-3-3,T,13,1,D,1,108918,2000,110922,111127,111128,554,<down>,<down>,1,1
100-3-3,T,14,-1,U,1,111708,1750,113463,113669,113669,574,<up>,<up>,1,1
100-3-3,T,15,1,U,2,114255,2750,117011,117217,117218,523,<up>,<up>,1,1
100-3-3,T,16,1,U,1,117767,3500,121273,121479,121480,523,<up>,<up>,1,1
100-3-3,T,17,1,R,2,122019,2750,124775,124982,124982,575,<right>,<right>,1,1
100-3-3,T,18,1,L,2,125577,3500,129083,129290,129290,562,<left>,<left>,1,1
100-3-3,T,19,1,R,2,129869,1500,131373,131580,131581,741,<right>,<right>,1,1
100-3-3,T,20,1,D,1,132340,1500,133846,134051,134052,609,<down>,<down>,1,1
100-3-3,T,21,1,D,2,134685,1500,136190,136397,136397,684,<down>,<down>,1,1
100-3-3,T,22,-1,U,2,137092,3500,140599,140806,140806,664,<up>,<up>,1,1
100-3-3,T,23,1,D,1,141486,2000,143491,143696,143697,603,<down>,<down>,1,1
100-3-3,T,24,1,U,1,144316,1500,145822,146029,146029,510,<up>,<up>,1,1
100-3-3,T,25,1,D,1,146551,2250,148806,149012,149012,552,<down>,<down>,1,1
100-3-3,T,26,1,U,2,149579,2000,151584,151792,151792,574,<up>,<up>,1,1
100-3-3,T,27,1,L,2,152380,2000,154384,154591,154592,756,<left>,<left>,1,1
100-3-3,T,28,-1,D,1,155362,2500,157869,158075,158076,614,<down>,<down>,1,1
100-3-3,T,29,1,R,1,158707,3500,162212,162417,162418,511,<right>,<right>,1,1
100-3-3,T,30,1,D,1,162944,2500,165449,165657,165657,603,<down>,<down>,1,1
100-3-3,T,31,1,R,2,166282,3250,169537,169744,169745,565,<right>,<right>,1,1
100-3-3,T,32,-1,D,2,170322,3000,173328,173534,173535,657,<down>,<down>,1,1
100-3-3,T,33,-1,L,1,174208,1750,175963,176170,176170,569,<left>,<left>,1,1
100-3-3,T,34,1,R,2,176754,1750,178508,178713,178714,574,<right>,<right>,1,1
100-3-3,T,35,-1,D,1,179303,3000,182308,182514,182515,551,<down>,<down>,1,1
100-3-3,T,36,1,U,2,183086,2500,185592,185799,185799,574,<up>,<up>,1,1
100-3-3,T,37,1,D,1,186397,2750,189153,189360,189361,580,<down>,<down>,1,1
100-3-3,T,38,-1,R,2,189956,2750,192710,192917,192917,568,<right>,<right>,1,1
100-3-3,T,39,-1,U,1,193495,3000,196501,196707,196708,521,<up>,<up>,1,1
100-3-3,T,40,1,R,2,197247,2500,199752,199957,199958,586,<right>,<right>,1,1
100-3-3,T,41,1,D,1,200560,2250,202816,203022,203023,569,<down>,<down>,1,1
100-3-3,T,42,-1,R,1,203609,2500,206114,206319,206320,593,<right>,<right>,1,1
100-3-3,T,43,1,U,2,206927,2250,209183,209390,209390,534,<up>,<up>,1,1
100-3-3,T,44,-1,U,1,209941,2750,212697,212902,212903,650,<up>,<up>,1,1
100-3-3,T,45,-1,D,1,213569,3000,216575,216782,216782,640,<down>,<down>,1,1
100-3-3,T,46,1,R,1,217437,3500,220942,221147,221148,549,<right>,<right>,1,1
100-3-3,T,47,1,U,1,221711,2500,224216,224421,224422,511,<up>,<up>,1,1
100-3-3,T,48,1,L,2,224960,1500,226464,226671,226672,571,<left>,<left>,1,1
100-3-3,T,49,-1,L,2,227255,1750,229009,229214,229215,592,<left>,<left>,1,1
100-3-3,T,50,1,L,1,229821,3000,232827,233034,233034,462,<left>,<left>,1,1
