subnum,block,trial,direction,stim,offset,fixationstart,delaytime,promptstart,arrowstart,maskstart,rt,corresp,resp,corr,bivalentcorr
208-4-1,P,0,1,D,2,3402,3000,6408,6913,6914,474,<down>,<down>,1,1
208-4-1,P,0,1,L,2,7411,2250,9666,10171,10171,542,<left>,<left>,1,1
208-4-1,P,0,-1,L,2,10735,2000,12740,13245,13246,426,<left>,<left>,1,1
208-4-1,P,0,-1,L,2,13696,2750,16450,16955,16955,470,<left>,<left>,1,1
208-4-1,P,0,-1,R,1,17447,3500,20952,21458,21459,486,<right>,<right>,1,1
208-4-1,P,0,1,L,2,21968,2500,24474,24981,24981,457,<left>,<left>,1,1
208-4-1,P,0,-1,R,1,25458,3000,28463,28969,28970,474,<right>,<right>,1,1
208-4-1,P,0,-1,U,1,29469,2250,31725,32232,32232,475,<up>,<up>,1,1
208-4-1,P,0,1,D,2,34229,2000,36234,36439,36440,615,<down>,<down>,1,1
208-4-1,P,0,1,D,1,37073,1750,38827,39035,39035,447,<down>,<up>,0,1
208-4-1,P,0,1,D,1,39491,3000,42497,42702,42703,371,<down>,<down>,1,1
208-4-1,P,0,1,L,2,43090,1500,44595,44802,44803,482,<left>,<left>,1,1
208-4-1,P,0,-1,R,1,45298,1750,47055,47260,47260,432,<right>,<right>,1,1
208-4-1,P,0,1,D,1,47715,1750,49470,49675,49675,475,<down>,<down>,1,1
208-4-1,P,0,-1,D,2,50171,1500,51677,51882,51883,411,<down>,<down>,1,1
208-4-1,P,0,1,L,1,52309,1500,53815,54021,54021,557,<left>,<left>,1,1
208-4-1,T,1,-1,L,1,55891,3000,58897,59103,59104,393,<left>,<right>,0,1
208-4-1,T,2,1,U,1,59519,3250,62774,62980,62981,393,<up>,<down>,0,1
208-4-1,T,3,1,R,2,63392,2500,65898,66104,66105,608,<right>,<right>,1,1
208-4-1,T,4,-1,L,2,66728,2750,69482,69688,69688,558,<left>,<left>,1,1
208-4-1,T,5,-1,U,2,70266,2750,73021,73226,73227,579,<up>,<up>,1,1
208-4-1,T,6,1,R,1,73823,3250,77079,77286,77286,523,<right>,<right>,1,1
208-4-1,T,7,1,U,2,77827,1750,79581,79786,79787,540,<up>,<up>,1,1
208-4-1,T,8,1,L,1,80341,2750,83097,83302,83303,492,<left>,<left>,1,1
208-4-1,T,9,-1,L,2,83811,3000,86817,87022,87023,623,<left>,<left>,1,1
208-4-1,T,10,-1,D,1,87665,1500,89169,89374,89375,561,<down>,<down>,1,1
208-4-1,T,11,-1,D,2,89954,2250,92209,92416,92416,559,<down>,<down>,1,1
208-4-1,T,12,-1,R,2,92993,3000,95999,96206,96206,592,<right>,<right>,1,1
208-4-1,T,13,-1,L,1,96813,2250,99069,99274,99275,592,<left>,<left>,1,1
208-4-1,T,14,-1,U,1,99885,3500,103389,103594,103595,625,<up>,<up>,1,1
208-4-1,T,15,-1,L,1,104237,3500,107742,107947,107948,549,<left>,<left>,1,1
208-4-1,T,16,-1,D,1,108510,1500,110014,110221,110221,492,<down>,<down>,1,1
208-4-1,T,17,1,L,1,110726,2750,113481,113688,113688,605,<left>,<left>,1,1
208-4-1,T,18,1,D,2,114307,3000,117312,117517,117518,489,<down>,<down>,1,1
208-4-1,T,19,-1,R,1,118022,1500,119528,119734,119734,445,<right>,<right>,1,1
208-4-1,T,20,-1,L,2,120194,3250,123448,123653,123654,594,<left>,<left>,1,1
208-4-1,T,21,-1,D,2,124264,3000,127268,127473,127474,617,<down>,<down>,1,1
208-4-1,T,22,1,L,2,128102,3250,131358,131565,131565,555,<left>,<left>,1,1
208-4-1,T,23,-1,D,2,132143,2250,134398,134605,134606,546,<down>,<down>,1,1
208-4-1,T,24,1,L,2,135168,1500,136673,136878,136879,591,<left>,<left>,1,1
208-4-1,T,25,1,L,2,137489,2750,140244,140449,140450,524,<left>,<left>,1,1
208-4-1,T,26,-1,D,2,140988,2000,142992,143197,143198,518,<down>,<down>,1,1
208-4-1,T,27,1,L,2,143732,3250,146987,147193,147194,1406,<left>,<left>,1,1
208-4-1,T,28,-1,R,2,148613,1750,150369,150574,150575,559,<right>,<right>,1,1
208-4-1,T,29,-1,D,1,151150,2500,153656,153863,153863,422,<down>,<down>,1,1
208-4-1,T,30,-1,R,2,154308,1750,156063,156270,156271,503,<right>,<right>,1,1
208-4-1,T,31,-1,D,1,156799,3500,160304,160509,160509,413,<down>,<down>,1,1
208-4-1,T,32,-1,R,1,160936,1500,162440,162645,162645,495,<right>,<right>,1,1
208-4-1,T,33,1,L,2,163150,3000,166155,166362,166362,516,<left>,<left>,1,1
208-4-1,T,34,1,D,2,166894,2500,169398,169603,169604,415,<down>,<down>,1,1
208-4-1,T,35,-1,L,1,170043,1500,171547,171752,171753,511,<left>,<right>,0,1
208-4-1,T,36,1,R,1,172280,2250,174534,174742,174742,393,<right>,<right>,1,1
208-4-1,T,37,-1,D,2,175159,1500,176664,176869,176870,599,<down>,<down>,1,1
208-4-1,T,38,-1,R,1,177481,3500,180986,181192,181193,492,<right>,<right>,1,1
208-4-1,T,39,-1,U,2,181695,3250,184950,185156,185156,653,<up>,<up>,1,1
208-4-1,T,40,1,R,2,185828,2750,188583,188788,188789,627,<right>,<right>,1,1
208-4-1,T,41,-1,D,1,189432,3000,192438,192644,192645,486,<down>,<down>,1,1
208-4-1,T,42,1,R,2,193156,3500,196660,196865,196865,537,<right>,<right>,1,1
208-4-1,T,43,1,R,1,197412,2500,199917,200124,200124,571,<right>,<right>,1,1
208-4-1,T,44,-1,U,2,200712,2500,203217,203423,203424,681,<up>,<up>,1,1
208-4-1,T,45,-1,L,1,204122,1750,205877,206085,206085,648,<left>,<left>,1,1
208-4-1,T,46,1,D,1,206745,2500,209251,209458,209458,505,<down>,<down>,1,1
208-4-1,T,47,-1,R,2,209976,2000,211981,212186,212187,492,<right>,<right>,1,1
208-4-1,T,48,-1,D,2,212695,2750,215450,215656,215656,517,<down>,<down>,1,1
208-4-1,T,49,-1,D,2,216187,1750,217941,218146,218147,463,<down>,<down>,1,1
208-4-1,T,50,1,D,1,218628,1500,220133,220340,220340,554,<down>,<down>,1,1
