subnum,block,trial,direction,stim,offset,fixationstart,delaytime,promptstart,arrowstart,maskstart,rt,corresp,resp,corr,bivalentcorr
208-3-3,P,0,1,L,1,2657,1750,4411,4919,4919,556,<left>,<left>,1,1
208-3-3,P,0,1,U,2,5488,2500,7993,8500,8500,488,<up>,<up>,1,1
208-3-3,P,0,-1,D,2,9012,2500,11517,12022,12022,542,<down>,<down>,1,1
208-3-3,P,0,-1,R,2,12579,1500,14083,14589,14590,622,<right>,<right>,1,1
208-3-3,P,0,1,L,1,15227,3000,18233,18740,18740,578,<left>,<left>,1,1
208-3-3,P,0,-1,L,1,19335,2250,21590,22096,22096,535,<left>,<right>,0,1
208-3-3,P,0,1,R,1,22647,2250,24902,25409,25410,414,<right>,<right>,1,1
208-3-3,P,0,-1,L,1,25847,3500,29353,29859,29859,371,<left>,<left>,1,1
208-3-3,P,0,1,U,1,32077,2500,34583,34788,34788,487,<up>,<up>,1,1
208-3-3,P,0,1,R,2,35287,3000,38293,38500,38500,595,<right>,<right>,1,1
208-3-3,P,0,1,U,2,39105,1750,40860,41067,41068,541,<up>,<up>,1,1
208-3-3,P,0,1,L,2,41618,2000,43623,43829,43829,485,<left>,<left>,1,1
208-3-3,P,0,-1,U,2,44326,1500,45831,46036,46037,499,<up>,<up>,1,1
208-3-3,P,0,-1,R,2,46546,3250,49800,50006,50007,612,<right>,<right>,1,1
208-3-3,P,0,1,L,2,50631,3000,53637,53843,53843,508,<left>,<left>,1,1
208-3-3,P,0,1,U,2,54364,2750,57119,57324,57325,537,<up>,<up>,1,1
208-3-3,T,1,-1,R,1,59143,2750,61898,62104,62104,480,<right>,<right>,1,1
208-3-3,T,2,-1,L,2,62593,2750,65349,65556,65556,533,<left>,<left>,1,1
208-3-3,T,3,-1,R,1,66101,2000,68105,68312,68313,422,<right>,<right>,1,1
208-3-3,T,4,1,L,2,68748,1750,70504,70711,70711,420,<left>,<left>,1,1
208-3-3,T,5,-1,U,2,71144,2750,73898,74104,74104,478,<up>,<up>,1,1
208-3-3,T,6,-1,D,1,74593,2000,76598,76803,76804,529,<down>,<down>,1,1
208-3-3,T,7,-1,U,2,77342,3500,80847,81053,81054,458,<up>,<up>,1,1
208-3-3,T,8,1,R,1,81521,3000,84527,84733,84733,393,<right>,<right>,1,1
208-3-3,T,9,1,R,2,85140,2250,87395,87603,87603,599,<right>,<right>,1,1
208-3-3,T,10,-1,R,1,88213,2750,90968,91174,91175,466,<right>,<right>,1,1
208-3-3,T,11,-1,D,2,91654,2750,94409,94616,94617,620,<down>,<down>,1,1
208-3-3,T,12,1,R,2,95250,3000,98255,98461,98461,563,<right>,<right>,1,1
208-3-3,T,13,-1,U,1,99034,3000,102038,102244,102245,506,<up>,<up>,1,1
208-3-3,T,14,-1,R,1,102760,3500,106265,106471,106472,379,<right>,<right>,1,1
208-3-3,T,15,-1,D,2,106860,3000,109865,110071,110071,574,<down>,<down>,1,1
208-3-3,T,16,1,L,2,110655,3500,114160,114366,114367,611,<left>,<left>,1,1
208-3-3,T,17,-1,D,1,114990,2250,117247,117454,117454,516,<down>,<down>,1,1
208-3-3,T,18,-1,U,1,117979,2000,119983,120188,120189,487,<up>,<up>,1,1
208-3-3,T,19,1,D,1,120688,2750,123444,123651,123651,509,<down>,<down>,1,1
208-3-3,T,20,-1,D,2,124170,2250,126425,126631,126631,837,<down>,<down>,1,1
208-3-3,T,21,-1,U,1,127479,2500,129983,130189,130190,524,<up>,<up>,1,1
208-3-3,T,22,1,R,2,130727,1500,132232,132438,132438,685,<right>,<right>,1,1
208-3-3,T,23,1,R,2,133134,2500,135640,135846,135847,563,<right>,<right>,1,1
208-3-3,T,24,1,U,1,136421,2000,138426,138632,138633,471,<up>,<up>,1,1
208-3-3,T,25,-1,U,2,139115,2000,141120,141326,141326,642,<up>,<up>,1,1
208-3-3,T,26,1,R,1,141980,2750,144735,144941,144942,386,<right>,<right>,1,1
208-3-3,T,27,-1,L,2,145338,2750,148094,148300,148300,452,<left>,<right>,0,1
208-3-3,T,28,1,L,2,148760,3000,151765,151971,151972,632,<left>,<left>,1,1
208-3-3,T,29,1,R,2,152615,3000,155620,155827,155827,555,<right>,<right>,1,1
208-3-3,T,30,1,R,1,156394,2250,158650,158856,158856,412,<right>,<right>,1,1
208-3-3,T,31,1,D,1,159278,2500,161784,161989,161990,521,<down>,<down>,1,1
208-3-3,T,32,-1,D,1,162525,3500,166031,166237,166237,506,<down>,<down>,1,1
208-3-3,T,33,1,R,2,166753,2000,168758,168965,168965,576,<right>,<right>,1,1
208-3-3,T,34,-1,U,2,169551,3000,172557,172763,172763,640,<up>,<up>,1,1
208-3-3,T,35,1,U,2,173413,3000,176418,176623,176624,606,<up>,<up>,1,1
208-3-3,T,36,-1,R,1,177241,3000,180246,180452,180453,466,<right>,<right>,1,1
208-3-3,T,37,1,L,2,180930,1500,182434,182639,182640,597,<left>,<left>,1,1
208-3-3,T,38,-1,R,2,183249,2500,185754,185959,185960,547,<right>,<right>,1,1
208-3-3,T,39,-1,L,2,186516,3250,189771,189977,189977,574,<left>,<left>,1,1
208-3-3,T,40,-1,U,2,190560,2750,193315,193522,193523,486,<up>,<up>,1,1
208-3-3,T,41,-1,U,1,194023,2250,196277,196483,196484,504,<up>,<up>,1,1
208-3-3,T,42,1,L,2,197003,1750,198757,198964,198965,664,<left>,<left>,1,1
208-3-3,T,43,1,R,2,199641,3250,202897,203103,203103,609,<right>,<right>,1,1
208-3-3,T,44,1,R,1,203725,2500,206230,206437,206437,488,<right>,<right>,1,1
208-3-3,T,45,-1,R,2,206937,3500,210443,210649,210649,671,<right>,<right>,1,1
208-3-3,T,46,-1,L,1,211333,3250,214589,214795,214796,1076,<left>,<left>,1,1
208-3-3,T,47,1,D,1,215881,1500,217387,217592,217593,588,<down>,<down>,1,1
208-3-3,T,48,-1,U,2,218193,3500,221697,221903,221904,470,<up>,<up>,1,1
208-3-3,T,49,1,U,1,222386,2750,225141,225347,225348,449,<up>,<up>,1,1
208-3-3,T,50,1,D,1,225810,3000,228815,229021,229021,502,<down>,<down>,1,1
