subnum,block,trial,direction,stim,offset,fixationstart,delaytime,promptstart,arrowstart,maskstart,rt,corresp,resp,corr,bivalentcorr
102-1-2,P,0,1,U,1,10547,1500,12052,12558,12559,684,<up>,<up>,1,1
102-1-2,P,0,-1,D,2,13266,1500,14771,15276,15276,649,<down>,<down>,1,1
102-1-2,P,0,-1,U,2,15944,1750,17700,18206,18207,704,<up>,<up>,1,1
102-1-2,P,0,1,R,2,18929,3000,21935,22442,22442,632,<right>,<right>,1,1
102-1-2,P,0,1,R,2,23088,3000,26092,26598,26599,868,<right>,<right>,1,1
102-1-2,P,0,1,D,1,27482,2250,29738,30245,30245,587,<down>,<down>,1,1
102-1-2,P,0,1,L,1,30848,3000,33853,34360,34360,605,<left>,<left>,1,1
102-1-2,P,0,-1,U,1,34986,1750,36743,37249,37250,555,<up>,<up>,1,1
102-1-2,P,0,1,D,2,41141,3500,44647,44854,44854,714,<down>,<up>,0,1
102-1-2,P,0,1,U,2,45580,3500,49086,49293,49294,521,<up>,<down>,0,1
102-1-2,P,0,1,U,1,49835,3250,53089,53296,53297,491,<up>,<up>,1,1
102-1-2,P,0,-1,D,1,53802,3250,57057,57264,57264,614,<down>,<down>,1,1
102-1-2,P,0,1,U,2,57892,1500,59397,59604,59604,586,<up>,<up>,1,1
102-1-2,P,0,1,D,1,60205,3250,63460,63667,63668,596,<down>,<down>,1,1
102-1-2,P,0,1,D,2,64275,1500,65780,65987,65988,733,<down>,<down>,1,1
102-1-2,P,0,1,U,2,66734,2750,69490,69697,69698,681,<up>,<up>,1,1
102-1-2,T,1,1,U,1,74109,1500,75614,75820,75820,548,<up>,<up>,1,1
102-1-2,T,2,1,R,2,76381,2250,78635,78840,78841,590,<right>,<right>,1,1
102-1-2,T,3,1,D,2,79443,2750,82199,82406,82406,695,<down>,<down>,1,1
102-1-2,T,4,1,L,1,83115,1500,84621,84828,84828,644,<left>,<left>,1,1
102-1-2,T,5,1,U,2,85484,3500,88989,89195,89195,614,<up>,<up>,1,1
102-1-2,T,6,-1,U,1,89824,3500,93328,93534,93535,581,<up>,<up>,1,1
102-1-2,T,7,1,D,1,94133,2750,96888,97094,97094,660,<down>,<down>,1,1
102-1-2,T,8,1,R,1,97768,3250,101024,101231,101231,682,<right>,<right>,1,1
102-1-2,T,9,1,R,2,101927,2500,104431,104637,104638,711,<right>,<right>,1,1
102-1-2,T,10,1,U,1,105368,2750,108122,108324,108324,582,<up>,<up>,1,1
102-1-2,T,11,-1,D,1,108923,1750,110677,110882,110883,624,<down>,<down>,1,1
102-1-2,T,12,-1,D,1,111521,3250,114775,114981,114982,602,<down>,<down>,1,1
102-1-2,T,13,1,D,1,115598,2250,117853,118059,118059,685,<down>,<down>,1,1
102-1-2,T,14,1,R,1,118759,2750,121513,121718,121719,497,<right>,<right>,1,1
102-1-2,T,15,-1,D,1,122236,2000,124241,124446,124447,548,<down>,<down>,1,1
102-1-2,T,16,1,L,1,125015,3500,128521,128728,128728,771,<left>,<left>,1,1
102-1-2,T,17,1,L,1,129512,3000,132517,132724,132724,576,<left>,<left>,1,1
102-1-2,T,18,-1,R,2,133312,1750,135067,135272,135273,1176,<right>,<right>,1,1
102-1-2,T,19,-1,L,1,136460,3250,139716,139922,139922,708,<left>,<left>,1,1
102-1-2,T,20,1,L,1,140648,2750,143403,143608,143609,542,<left>,<left>,1,1
102-1-2,T,21,1,U,2,144165,3500,147670,147878,147878,723,<up>,<down>,0,1
102-1-2,T,22,1,R,2,148612,3250,151868,152074,152075,672,<right>,<right>,1,1
102-1-2,T,23,-1,D,2,152758,1500,154264,154471,154471,724,<down>,<down>,1,1
102-1-2,T,24,-1,D,1,155210,3500,158716,158921,158921,592,<down>,<down>,1,1
102-1-2,T,25,1,R,1,159528,3500,163033,163240,163240,601,<right>,<right>,1,1
102-1-2,T,26,1,D,2,163855,3500,167360,167567,167568,521,<down>,<down>,1,1
102-1-2,T,27,1,R,1,168104,3500,171610,171816,171817,551,<right>,<right>,1,1
102-1-2,T,28,1,L,2,172382,2000,174387,174594,174594,497,<left>,<right>,0,1
102-1-2,T,29,1,D,1,175115,3000,178121,178328,178328,481,<down>,<down>,1,1
102-1-2,T,30,-1,D,2,178837,2250,181092,181297,181297,842,<down>,<down>,1,1
102-1-2,T,31,-1,D,2,182153,2750,184909,185116,185116,536,<down>,<down>,1,1
102-1-2,T,32,-1,D,2,185666,2750,188422,188629,188629,552,<down>,<down>,1,1
102-1-2,T,33,-1,R,2,189196,2000,191201,191408,191408,1833,<right>,<down>,0,0
102-1-2,T,34,-1,D,1,193255,2000,195259,195466,195466,471,<down>,<down>,1,1
102-1-2,T,35,-1,R,1,195952,2750,198707,198913,198913,614,<right>,<right>,1,1
102-1-2,T,36,-1,D,2,199540,3250,202795,203001,203002,571,<down>,<down>,1,1
102-1-2,T,37,-1,R,1,203588,2750,206343,206548,206549,526,<right>,<right>,1,1
102-1-2,T,38,1,D,2,207089,2250,209344,209549,209550,628,<down>,<down>,1,1
102-1-2,T,39,-1,R,1,210190,3000,213195,213401,213402,507,<right>,<right>,1,1
102-1-2,T,40,1,U,1,213929,3500,217435,217642,217642,680,<up>,<up>,1,1
102-1-2,T,41,1,L,1,218337,2750,221092,221297,221298,507,<left>,<right>,0,1
102-1-2,T,42,-1,L,2,221823,3000,224829,225036,225037,652,<left>,<left>,1,1
102-1-2,T,43,1,L,2,225702,2000,227708,227916,227916,645,<left>,<left>,1,1
102-1-2,T,44,1,L,2,228578,2750,231332,231538,231538,460,<left>,<right>,0,1
102-1-2,T,45,1,D,1,232021,3250,235277,235484,235484,502,<down>,<down>,1,1
102-1-2,T,46,-1,D,1,236002,1750,237757,237965,237965,533,<down>,<down>,1,1
102-1-2,T,47,-1,D,2,238513,3250,241768,241975,241975,524,<down>,<down>,1,1
102-1-2,T,48,1,R,1,242513,1500,244017,244222,244223,588,<right>,<right>,1,1
102-1-2,T,49,-1,U,2,244826,1750,246580,246785,246786,672,<up>,<up>,1,1
102-1-2,T,50,-1,D,1,247474,3250,250729,250936,250936,581,<down>,<down>,1,1
