"subnum" "stimtype" "block" "trialtype" "trial" "condition" "stim" "dim1" "dim2" "time0" "resp1" "rt1" "corr1" "resp2" "rt2" "corr2" "tooslow"
"100-1-1" 4 1 "PRACTICE" -25 1 2 0 1 81656 2 998 1 NA 0 0 0
"100-1-1" 4 1 "PRACTICE" -24 1 4 0 0 83829 2 543 1 NA 0 0 0
"100-1-1" 4 1 "PRACTICE" -23 1 3 1 0 85582 1 530 1 NA 0 0 0
"100-1-1" 4 1 "PRACTICE" -22 1 1 1 1 86996 1 532 1 NA 0 0 0
"100-1-1" 4 1 "PRACTICE" -21 1 3 1 0 88609 1 484 1 NA 0 0 0
"100-1-1" 4 1 "PRACTICE" -20 1 1 1 1 89967 1 464 1 NA 0 0 0
"100-1-1" 4 1 "PRACTICE" -19 1 2 0 1 91505 2 528 1 NA 0 0 0
"100-1-1" 4 1 "PRACTICE" -18 1 4 0 0 93323 2 423 1 NA 0 0 0
"100-1-1" 4 1 "TEST" 1 1 3 1 0 94882 1 506 1 NA 0 0 0
"100-1-1" 4 1 "TEST" 2 1 4 0 0 96373 2 446 1 NA 0 0 0
"100-1-1" 4 1 "TEST" 3 1 1 1 1 97851 1 377 1 NA 0 0 0
"100-1-1" 4 1 "TEST" 4 1 2 0 1 99508 2 430 1 NA 0 0 0
"100-1-1" 4 1 "TEST" 5 1 4 0 0 101058 2 423 1 NA 0 0 0
"100-1-1" 4 1 "TEST" 6 1 1 1 1 102709 1 381 1 NA 0 0 0
"100-1-1" 4 1 "TEST" 7 1 3 1 0 104219 1 441 1 NA 0 0 0
"100-1-1" 4 1 "TEST" 8 1 2 0 1 105794 2 394 1 NA 0 0 0
"100-1-1" 4 1 "TEST" 9 1 3 1 0 107235 1 372 1 NA 0 0 0
"100-1-1" 4 1 "TEST" 10 1 2 0 1 108717 2 344 1 NA 0 0 0
"100-1-1" 4 1 "TEST" 11 1 1 1 1 110081 1 322 1 NA 0 0 0
"100-1-1" 4 1 "TEST" 12 1 4 0 0 111720 2 438 1 NA 0 0 0
"100-1-1" 4 1 "TEST" 13 1 3 1 0 113256 1 422 1 NA 0 0 0
"100-1-1" 4 1 "TEST" 14 1 4 0 0 114913 2 397 1 NA 0 0 0
"100-1-1" 4 1 "TEST" 15 1 1 1 1 116448 1 416 1 NA 0 0 0
"100-1-1" 4 1 "TEST" 16 1 2 0 1 117811 2 537 1 NA 0 0 0
"100-1-1" 4 1 "TEST" 17 1 1 1 1 119205 1 379 1 NA 0 0 0
"100-1-1" 4 1 "TEST" 18 1 4 0 0 120776 2 398 1 NA 0 0 0
"100-1-1" 4 1 "TEST" 19 1 3 1 0 122138 1 364 1 NA 0 0 0
"100-1-1" 4 1 "TEST" 20 1 2 0 1 123589 2 345 1 NA 0 0 0
"100-1-1" 4 1 "TEST" 21 1 3 1 0 124797 1 437 1 NA 0 0 0
"100-1-1" 4 1 "TEST" 22 1 4 0 0 126180 2 384 1 NA 0 0 0
"100-1-1" 4 1 "TEST" 23 1 1 1 1 127720 1 352 1 NA 0 0 0
"100-1-1" 4 1 "TEST" 24 1 2 0 1 128996 2 498 1 NA 0 0 0
"100-1-1" 4 1 "TEST" 25 1 1 1 1 130369 1 382 1 NA 0 0 0
"100-1-1" 4 2 "PRACTICE" -25 2 4 0 0 155652 NA 0 0 0 489 1 0
"100-1-1" 4 2 "PRACTICE" -24 2 1 1 1 157330 NA 0 0 9 540 1 0
"100-1-1" 4 2 "PRACTICE" -23 2 3 1 0 158877 NA 0 0 0 340 1 0
"100-1-1" 4 2 "PRACTICE" -22 2 2 0 1 160273 NA 0 0 0 386 0 0
"100-1-1" 4 2 "PRACTICE" -21 2 4 0 0 162323 NA 0 0 0 418 1 0
"100-1-1" 4 2 "PRACTICE" -20 2 3 1 0 163708 NA 0 0 0 457 1 0
"100-1-1" 4 2 "PRACTICE" -19 2 1 1 1 165412 NA 0 0 9 462 1 0
"100-1-1" 4 2 "PRACTICE" -18 2 2 0 1 167189 NA 0 0 9 502 1 0
"100-1-1" 4 2 "TEST" 1 2 4 0 0 168883 NA 0 0 0 389 1 0
"100-1-1" 4 2 "TEST" 2 2 2 0 1 170396 NA 0 0 9 482 1 0
"100-1-1" 4 2 "TEST" 3 2 1 1 1 171893 NA 0 0 9 442 1 0
"100-1-1" 4 2 "TEST" 4 2 3 1 0 173354 NA 0 0 0 362 1 0
"100-1-1" 4 2 "TEST" 5 2 4 0 0 174715 NA 0 0 0 352 1 0
"100-1-1" 4 2 "TEST" 6 2 1 1 1 176304 NA 0 0 9 464 1 0
"100-1-1" 4 2 "TEST" 7 2 2 0 1 178040 NA 0 0 9 866 1 0
"100-1-1" 4 2 "TEST" 8 2 3 1 0 179761 NA 0 0 0 463 1 0
"100-1-1" 4 2 "TEST" 9 2 4 0 0 181185 NA 0 0 0 442 1 0
"100-1-1" 4 2 "TEST" 10 2 3 1 0 182641 NA 0 0 0 432 1 0
"100-1-1" 4 2 "TEST" 11 2 2 0 1 184203 NA 0 0 9 448 1 0
"100-1-1" 4 2 "TEST" 12 2 1 1 1 185687 NA 0 0 9 561 1 0
"100-1-1" 4 2 "TEST" 13 2 3 1 0 187372 NA 0 0 0 464 1 0
"100-1-1" 4 2 "TEST" 14 2 2 0 1 188983 NA 0 0 9 476 1 0
"100-1-1" 4 2 "TEST" 15 2 4 0 0 190326 NA 0 0 0 498 1 0
"100-1-1" 4 2 "TEST" 16 2 1 1 1 191826 NA 0 0 9 456 1 0
"100-1-1" 4 2 "TEST" 17 2 4 0 0 193266 NA 0 0 0 481 1 0
"100-1-1" 4 2 "TEST" 18 2 3 1 0 194980 NA 0 0 0 516 1 0
"100-1-1" 4 2 "TEST" 19 2 2 0 1 196615 NA 0 0 9 481 1 0
"100-1-1" 4 2 "TEST" 20 2 1 1 1 198316 NA 0 0 9 476 1 0
"100-1-1" 4 2 "TEST" 21 2 4 0 0 199690 NA 0 0 0 517 1 0
"100-1-1" 4 2 "TEST" 22 2 1 1 1 201097 NA 0 0 9 521 1 0
"100-1-1" 4 2 "TEST" 23 2 3 1 0 202839 NA 0 0 0 490 1 0
"100-1-1" 4 2 "TEST" 24 2 2 0 1 204243 NA 0 0 9 596 1 0
"100-1-1" 4 2 "TEST" 25 2 4 0 0 206041 NA 0 0 0 419 1 0
"100-1-1" 4 3 "PRACTICE" -25 3 2 0 1 238390 2 4695 1 NA 0 0 1
"100-1-1" 4 3 "PRACTICE" -24 3 3 1 0 244900 NA 0 0 NA 0 0 1
"100-1-1" 4 3 "PRACTICE" -23 3 1 1 1 251454 NA 0 0 NA 0 0 1
"100-1-1" 4 3 "PRACTICE" -22 3 4 0 0 258015 NA 0 0 NA 0 0 1
"100-1-1" 4 3 "PRACTICE" -21 3 2 0 1 264599 2 884 1 9 1140 1 0
"100-1-1" 4 3 "PRACTICE" -20 3 3 1 0 266908 1 909 1 0 1124 1 0
"100-1-1" 4 3 "PRACTICE" -19 3 1 1 1 268913 1 859 1 9 980 1 0
"100-1-1" 4 3 "PRACTICE" -18 3 4 0 0 271202 2 694 1 0 730 1 0
"100-1-1" 4 3 "TEST" 1 3 2 0 1 273136 2 1259 1 9 1309 1 0
"100-1-1" 4 3 "TEST" 2 3 4 0 0 275658 2 916 1 0 978 1 0
"100-1-1" 4 3 "TEST" 3 3 3 1 0 277827 1 1275 1 0 1329 1 0
"100-1-1" 4 3 "TEST" 4 3 1 1 1 280251 1 696 1 9 786 1 0
"100-1-1" 4 3 "TEST" 5 3 2 0 1 282037 2 1042 1 9 1067 1 0
"100-1-1" 4 3 "TEST" 6 3 1 1 1 284409 1 742 1 9 758 1 0
"100-1-1" 4 3 "TEST" 7 3 3 1 0 286235 1 715 1 0 709 1 0
"100-1-1" 4 3 "TEST" 8 3 4 0 0 288078 2 566 1 0 570 1 0
"100-1-1" 4 3 "TEST" 9 3 3 1 0 289886 1 797 1 0 772 1 0
"100-1-1" 4 3 "TEST" 10 3 2 0 1 291948 2 653 1 9 663 1 0
"100-1-1" 4 3 "TEST" 11 3 4 0 0 293554 2 610 1 0 606 1 0
"100-1-1" 4 3 "TEST" 12 3 1 1 1 295051 1 629 1 9 625 1 0
"100-1-1" 4 3 "TEST" 13 3 2 0 1 296809 2 878 1 9 890 1 0
"100-1-1" 4 3 "TEST" 14 3 3 1 0 298967 1 786 1 0 790 1 0
"100-1-1" 4 3 "TEST" 15 3 4 0 0 300930 2 631 1 0 640 1 0
"100-1-1" 4 3 "TEST" 16 3 1 1 1 302789 1 524 1 9 552 1 0
"100-1-1" 4 3 "TEST" 17 3 2 0 1 304295 2 861 1 9 881 1 0
"100-1-1" 4 3 "TEST" 18 3 3 1 0 306120 1 699 1 0 703 1 0
"100-1-1" 4 3 "TEST" 19 3 1 1 1 307991 1 593 1 9 597 1 0
"100-1-1" 4 3 "TEST" 20 3 4 0 0 309854 2 544 1 0 528 1 0
"100-1-1" 4 3 "TEST" 21 3 2 0 1 311268 2 943 1 9 946 1 0
"100-1-1" 4 3 "TEST" 22 3 1 1 1 313287 1 628 1 9 642 1 0
"100-1-1" 4 3 "TEST" 23 3 4 0 0 315023 2 553 1 0 558 1 0
"100-1-1" 4 3 "TEST" 24 3 3 1 0 316919 1 920 1 0 906 1 0
"100-1-1" 4 3 "TEST" 25 3 4 0 0 318694 2 696 1 0 730 1 0
"100-1-2" 4 1 "PRACTICE" -25 1 4 0 0 13954 2 896 1 NA 0 0 0
"100-1-2" 4 1 "PRACTICE" -24 1 3 1 0 15735 1 530 1 NA 0 0 0
"100-1-2" 4 1 "PRACTICE" -23 1 2 0 1 17106 2 681 1 NA 0 0 0
"100-1-2" 4 1 "PRACTICE" -22 1 1 1 1 18666 1 442 1 NA 0 0 0
"100-1-2" 4 1 "PRACTICE" -21 1 1 1 1 20184 1 413 1 NA 0 0 0
"100-1-2" 4 1 "PRACTICE" -20 1 2 0 1 21796 2 471 1 NA 0 0 0
"100-1-2" 4 1 "PRACTICE" -19 1 3 1 0 23257 1 388 1 NA 0 0 0
"100-1-2" 4 1 "PRACTICE" -18 1 4 0 0 24604 2 405 1 NA 0 0 0
"100-1-2" 4 1 "TEST" 1 1 4 0 0 26312 2 416 1 NA 0 0 0
"100-1-2" 4 1 "TEST" 2 1 3 1 0 27749 1 492 1 NA 0 0 0
"100-1-2" 4 1 "TEST" 3 1 2 0 1 29093 2 478 1 NA 0 0 0
"100-1-2" 4 1 "TEST" 4 1 1 1 1 30538 1 375 1 NA 0 0 0
"100-1-2" 4 1 "TEST" 5 1 2 0 1 31818 2 416 1 NA 0 0 0
"100-1-2" 4 1 "TEST" 6 1 1 1 1 33254 1 333 1 NA 0 0 0
"100-1-2" 4 1 "TEST" 7 1 3 1 0 34843 1 444 1 NA 0 0 0
"100-1-2" 4 1 "TEST" 8 1 4 0 0 36282 2 415 1 NA 0 0 0
"100-1-2" 4 1 "TEST" 9 1 2 0 1 37889 1 325 0 NA 0 0 0
"100-1-2" 4 1 "TEST" 10 1 3 1 0 39585 1 424 1 NA 0 0 0
"100-1-2" 4 1 "TEST" 11 1 1 1 1 41207 1 407 1 NA 0 0 0
"100-1-2" 4 1 "TEST" 12 1 4 0 0 42466 2 504 1 NA 0 0 0
"100-1-2" 4 1 "TEST" 13 1 2 0 1 43985 2 500 1 NA 0 0 0
"100-1-2" 4 1 "TEST" 14 1 3 1 0 45363 1 378 1 NA 0 0 0
"100-1-2" 4 1 "TEST" 15 1 1 1 1 46628 1 433 1 NA 0 0 0
"100-1-2" 4 1 "TEST" 16 1 4 0 0 48389 2 442 1 NA 0 0 0
"100-1-2" 4 1 "TEST" 17 1 1 1 1 49902 1 390 1 NA 0 0 0
"100-1-2" 4 1 "TEST" 18 1 4 0 0 51216 2 408 1 NA 0 0 0
"100-1-2" 4 1 "TEST" 19 1 2 0 1 52601 2 537 1 NA 0 0 0
"100-1-2" 4 1 "TEST" 20 1 3 1 0 54334 1 396 1 NA 0 0 0
"100-1-2" 4 1 "TEST" 21 1 1 1 1 55751 1 415 1 NA 0 0 0
"100-1-2" 4 1 "TEST" 22 1 4 0 0 57087 2 400 1 NA 0 0 0
"100-1-2" 4 1 "TEST" 23 1 2 0 1 58335 2 468 1 NA 0 0 0
"100-1-2" 4 1 "TEST" 24 1 3 1 0 60090 1 470 1 NA 0 0 0
"100-1-2" 4 1 "TEST" 25 1 2 0 1 61828 2 407 1 NA 0 0 0
"100-1-2" 4 2 "PRACTICE" -25 2 4 0 0 67628 NA 0 0 0 724 1 0
"100-1-2" 4 2 "PRACTICE" -24 2 2 0 1 69487 NA 0 0 9 474 1 0
"100-1-2" 4 2 "PRACTICE" -23 2 3 1 0 70852 NA 0 0 0 418 1 0
"100-1-2" 4 2 "PRACTICE" -22 2 1 1 1 72320 NA 0 0 9 414 1 0
"100-1-2" 4 2 "PRACTICE" -21 2 4 0 0 73704 NA 0 0 0 385 1 0
"100-1-2" 4 2 "PRACTICE" -20 2 1 1 1 75282 NA 0 0 9 359 1 0
"100-1-2" 4 2 "PRACTICE" -19 2 3 1 0 76937 NA 0 0 0 370 1 0
"100-1-2" 4 2 "PRACTICE" -18 2 2 0 1 78563 NA 0 0 9 376 1 0
"100-1-2" 4 2 "TEST" 1 2 4 0 0 79991 NA 0 0 0 354 1 0
"100-1-2" 4 2 "TEST" 2 2 2 0 1 81272 NA 0 0 9 384 1 0
"100-1-2" 4 2 "TEST" 3 2 1 1 1 82555 NA 0 0 9 448 1 0
"100-1-2" 4 2 "TEST" 4 2 3 1 0 83860 NA 0 0 0 386 1 0
"100-1-2" 4 2 "TEST" 5 2 2 0 1 85350 NA 0 0 9 311 1 0
"100-1-2" 4 2 "TEST" 6 2 1 1 1 86767 NA 0 0 9 402 1 0
"100-1-2" 4 2 "TEST" 7 2 4 0 0 88441 NA 0 0 0 385 1 0
"100-1-2" 4 2 "TEST" 8 2 3 1 0 90046 NA 0 0 0 468 1 0
"100-1-2" 4 2 "TEST" 9 2 4 0 0 91432 NA 0 0 0 464 1 0
"100-1-2" 4 2 "TEST" 10 2 1 1 1 93207 NA 0 0 9 372 1 0
"100-1-2" 4 2 "TEST" 11 2 3 1 0 94690 NA 0 0 0 350 1 0
"100-1-2" 4 2 "TEST" 12 2 2 0 1 96224 NA 0 0 9 428 1 0
"100-1-2" 4 2 "TEST" 13 2 3 1 0 97704 NA 0 0 0 409 1 0
"100-1-2" 4 2 "TEST" 14 2 4 0 0 99104 NA 0 0 0 389 1 0
"100-1-2" 4 2 "TEST" 15 2 1 1 1 100404 NA 0 0 9 401 1 0
"100-1-2" 4 2 "TEST" 16 2 2 0 1 101816 NA 0 0 9 376 1 0
"100-1-2" 4 2 "TEST" 17 2 1 1 1 103321 NA 0 0 9 462 1 0
"100-1-2" 4 2 "TEST" 18 2 3 1 0 104979 NA 0 0 0 417 1 0
"100-1-2" 4 2 "TEST" 19 2 4 0 0 106423 NA 0 0 0 407 1 0
"100-1-2" 4 2 "TEST" 20 2 2 0 1 107698 NA 0 0 9 429 1 0
"100-1-2" 4 2 "TEST" 21 2 4 0 0 108990 NA 0 0 0 362 1 0
"100-1-2" 4 2 "TEST" 22 2 2 0 1 110374 NA 0 0 9 417 1 0
"100-1-2" 4 2 "TEST" 23 2 1 1 1 111987 NA 0 0 9 409 1 0
"100-1-2" 4 2 "TEST" 24 2 3 1 0 113572 NA 0 0 0 375 1 0
"100-1-2" 4 2 "TEST" 25 2 2 0 1 115114 NA 0 0 9 354 1 0
"100-1-2" 4 3 "PRACTICE" -25 3 3 1 0 121917 2 1620 0 0 1632 1 0
"100-1-2" 4 3 "PRACTICE" -24 3 1 1 1 125293 2 702 0 0 1059 0 0
"100-1-2" 4 3 "PRACTICE" -23 3 4 0 0 127731 2 1126 1 0 1228 1 0
"100-1-2" 4 3 "PRACTICE" -22 3 2 0 1 130040 2 1108 1 9 1131 1 0
"100-1-2" 4 3 "PRACTICE" -21 3 1 1 1 132059 1 619 1 9 639 1 0
"100-1-2" 4 3 "PRACTICE" -20 3 4 0 0 133974 2 389 1 0 392 1 0
"100-1-2" 4 3 "PRACTICE" -19 3 2 0 1 135653 2 546 1 9 529 1 0
"100-1-2" 4 3 "PRACTICE" -18 3 3 1 0 137339 1 675 1 0 691 1 0
"100-1-2" 4 3 "TEST" 1 3 3 1 0 138980 1 967 1 0 987 1 0
"100-1-2" 4 3 "TEST" 2 3 1 1 1 140993 1 530 1 9 536 1 0
"100-1-2" 4 3 "TEST" 3 3 2 0 1 142736 2 660 1 9 664 1 0
"100-1-2" 4 3 "TEST" 4 3 4 0 0 144438 2 545 1 0 531 1 0
"100-1-2" 4 3 "TEST" 5 3 2 0 1 145896 2 705 1 9 710 1 0
"100-1-2" 4 3 "TEST" 6 3 3 1 0 147938 1 642 1 0 660 1 0
"100-1-2" 4 3 "TEST" 7 3 1 1 1 149896 1 518 1 9 512 1 0
"100-1-2" 4 3 "TEST" 8 3 4 0 0 151318 2 511 1 0 504 1 0
"100-1-2" 4 3 "TEST" 9 3 3 1 0 153144 1 644 1 0 662 1 0
"100-1-2" 4 3 "TEST" 10 3 2 0 1 154762 2 668 1 9 698 1 0
"100-1-2" 4 3 "TEST" 11 3 1 1 1 156358 1 581 1 9 573 1 0
"100-1-2" 4 3 "TEST" 12 3 4 0 0 158144 2 480 1 0 486 1 0
"100-1-2" 4 3 "TEST" 13 3 2 0 1 159613 2 491 1 9 487 1 0
"100-1-2" 4 3 "TEST" 14 3 1 1 1 161133 1 473 1 9 477 1 0
"100-1-2" 4 3 "TEST" 15 3 3 1 0 162725 1 538 1 0 512 1 0
"100-1-2" 4 3 "TEST" 16 3 4 0 0 164140 2 604 1 0 513 1 0
"100-1-2" 4 3 "TEST" 17 3 1 1 1 165921 1 471 1 9 481 1 0
"100-1-2" 4 3 "TEST" 18 3 4 0 0 167729 2 452 1 0 448 1 0
"100-1-2" 4 3 "TEST" 19 3 2 0 1 169283 2 495 1 9 491 1 0
"100-1-2" 4 3 "TEST" 20 3 3 1 0 171000 1 456 1 0 448 1 0
"100-1-2" 4 3 "TEST" 21 3 2 0 1 172380 2 583 1 9 597 1 0
"100-1-2" 4 3 "TEST" 22 3 1 1 1 174154 1 484 1 9 500 1 0
"100-1-2" 4 3 "TEST" 23 3 3 1 0 175575 1 674 1 0 662 1 0
"100-1-2" 4 3 "TEST" 24 3 4 0 0 177406 2 442 1 0 446 1 0
"100-1-2" 4 3 "TEST" 25 3 1 1 1 178734 1 446 1 9 451 1 0
"100-1-3" 4 1 "PRACTICE" -25 1 4 0 0 56817 2 743 1 NA 0 0 0
"100-1-3" 4 1 "PRACTICE" -24 1 3 1 0 58407 1 740 1 NA 0 0 0
"100-1-3" 4 1 "PRACTICE" -23 1 2 0 1 60210 2 572 1 NA 0 0 0
"100-1-3" 4 1 "PRACTICE" -22 1 1 1 1 61629 1 585 1 NA 0 0 0
"100-1-3" 4 1 "PRACTICE" -21 1 2 0 1 63148 2 521 1 NA 0 0 0
"100-1-3" 4 1 "PRACTICE" -20 1 1 1 1 64639 1 452 1 NA 0 0 0
"100-1-3" 4 1 "PRACTICE" -19 1 4 0 0 65971 2 418 1 NA 0 0 0
"100-1-3" 4 1 "PRACTICE" -18 1 3 1 0 67542 1 370 1 NA 0 0 0
"100-1-3" 4 1 "TEST" 1 1 1 1 1 68890 1 430 1 NA 0 0 0
"100-1-3" 4 1 "TEST" 2 1 4 0 0 70194 2 422 1 NA 0 0 0
"100-1-3" 4 1 "TEST" 3 1 3 1 0 71505 1 397 1 NA 0 0 0
"100-1-3" 4 1 "TEST" 4 1 2 0 1 72982 2 375 1 NA 0 0 0
"100-1-3" 4 1 "TEST" 5 1 3 1 0 74396 1 362 1 NA 0 0 0
"100-1-3" 4 1 "TEST" 6 1 4 0 0 75751 2 394 1 NA 0 0 0
"100-1-3" 4 1 "TEST" 7 1 1 1 1 77189 1 342 1 NA 0 0 0
"100-1-3" 4 1 "TEST" 8 1 2 0 1 78745 2 406 1 NA 0 0 0
"100-1-3" 4 1 "TEST" 9 1 3 1 0 80484 1 394 1 NA 0 0 0
"100-1-3" 4 1 "TEST" 10 1 1 1 1 81991 1 407 1 NA 0 0 0
"100-1-3" 4 1 "TEST" 11 1 4 0 0 83432 2 397 1 NA 0 0 0
"100-1-3" 4 1 "TEST" 12 1 2 0 1 85027 2 639 1 NA 0 0 0
"100-1-3" 4 1 "TEST" 13 1 4 0 0 86646 2 594 1 NA 0 0 0
"100-1-3" 4 1 "TEST" 14 1 1 1 1 88573 1 447 1 NA 0 0 0
"100-1-3" 4 1 "TEST" 15 1 2 0 1 89871 2 478 1 NA 0 0 0
"100-1-3" 4 1 "TEST" 16 1 3 1 0 91238 1 411 1 NA 0 0 0
"100-1-3" 4 1 "TEST" 17 1 1 1 1 92907 1 389 1 NA 0 0 0
"100-1-3" 4 1 "TEST" 18 1 2 0 1 94484 2 405 1 NA 0 0 0
"100-1-3" 4 1 "TEST" 19 1 3 1 0 95956 1 349 1 NA 0 0 0
"100-1-3" 4 1 "TEST" 20 1 4 0 0 97604 2 413 1 NA 0 0 0
"100-1-3" 4 1 "TEST" 21 1 2 0 1 99182 2 500 1 NA 0 0 0
"100-1-3" 4 1 "TEST" 22 1 4 0 0 100915 2 480 1 NA 0 0 0
"100-1-3" 4 1 "TEST" 23 1 3 1 0 102521 1 352 1 NA 0 0 0
"100-1-3" 4 1 "TEST" 24 1 1 1 1 103900 1 424 1 NA 0 0 0
"100-1-3" 4 1 "TEST" 25 1 4 0 0 105619 2 416 1 NA 0 0 0
"100-1-3" 4 2 "PRACTICE" -25 2 4 0 0 116349 NA 0 0 0 1016 1 0
"100-1-3" 4 2 "PRACTICE" -24 2 1 1 1 118311 NA 0 0 9 572 1 0
"100-1-3" 4 2 "PRACTICE" -23 2 2 0 1 120129 NA 0 0 9 497 1 0
"100-1-3" 4 2 "PRACTICE" -22 2 3 1 0 121671 NA 0 0 0 410 1 0
"100-1-3" 4 2 "PRACTICE" -21 2 1 1 1 123131 NA 0 0 9 438 1 0
"100-1-3" 4 2 "PRACTICE" -20 2 2 0 1 124634 NA 0 0 9 448 1 0
"100-1-3" 4 2 "PRACTICE" -19 2 3 1 0 126038 NA 0 0 0 352 1 0
"100-1-3" 4 2 "PRACTICE" -18 2 4 0 0 127551 NA 0 0 0 465 1 0
"100-1-3" 4 2 "TEST" 1 2 4 0 0 129071 NA 0 0 0 486 1 0
"100-1-3" 4 2 "TEST" 2 2 1 1 1 130756 NA 0 0 9 531 1 0
"100-1-3" 4 2 "TEST" 3 2 2 0 1 132293 NA 0 0 9 441 1 0
"100-1-3" 4 2 "TEST" 4 2 3 1 0 133628 NA 0 0 0 361 1 0
"100-1-3" 4 2 "TEST" 5 2 2 0 1 135025 NA 0 0 0 383 0 0
"100-1-3" 4 2 "TEST" 6 2 1 1 1 137219 NA 0 0 9 517 1 0
"100-1-3" 4 2 "TEST" 7 2 4 0 0 139031 NA 0 0 0 440 1 0
"100-1-3" 4 2 "TEST" 8 2 3 1 0 140412 NA 0 0 0 467 1 0
"100-1-3" 4 2 "TEST" 9 2 2 0 1 141828 NA 0 0 9 442 1 0
"100-1-3" 4 2 "TEST" 10 2 1 1 1 143403 NA 0 0 9 448 1 0
"100-1-3" 4 2 "TEST" 11 2 4 0 0 144833 NA 0 0 0 382 1 0
"100-1-3" 4 2 "TEST" 12 2 3 1 0 146125 NA 0 0 0 370 1 0
"100-1-3" 4 2 "TEST" 13 2 1 1 1 147388 NA 0 0 9 431 1 0
"100-1-3" 4 2 "TEST" 14 2 3 1 0 148667 NA 0 0 0 355 1 0
"100-1-3" 4 2 "TEST" 15 2 4 0 0 149855 NA 0 0 0 394 1 0
"100-1-3" 4 2 "TEST" 16 2 2 0 1 151158 NA 0 0 9 410 1 0
"100-1-3" 4 2 "TEST" 17 2 4 0 0 152728 NA 0 0 0 391 1 0
"100-1-3" 4 2 "TEST" 18 2 3 1 0 154136 NA 0 0 0 521 1 0
"100-1-3" 4 2 "TEST" 19 2 2 0 1 155823 NA 0 0 9 626 1 0
"100-1-3" 4 2 "TEST" 20 2 1 1 1 157635 NA 0 0 9 548 1 0
"100-1-3" 4 2 "TEST" 21 2 4 0 0 159308 NA 0 0 0 413 1 0
"100-1-3" 4 2 "TEST" 22 2 3 1 0 160619 NA 0 0 0 467 1 0
"100-1-3" 4 2 "TEST" 23 2 2 0 1 162352 NA 0 0 9 461 1 0
"100-1-3" 4 2 "TEST" 24 2 1 1 1 163807 NA 0 0 9 500 1 0
"100-1-3" 4 2 "TEST" 25 2 4 0 0 165272 NA 0 0 0 400 1 0
"100-1-3" 4 3 "PRACTICE" -25 3 4 0 0 178252 NA 0 0 0 1073 1 1
"100-1-3" 4 3 "PRACTICE" -24 3 2 0 1 184826 NA 0 0 9 2315 1 1
"100-1-3" 4 3 "PRACTICE" -23 3 3 1 0 191216 2 2329 0 0 3725 1 0
"100-1-3" 4 3 "PRACTICE" -22 3 1 1 1 196592 1 3169 1 9 3579 1 0
"100-1-3" 4 3 "PRACTICE" -21 3 1 1 1 201149 1 712 1 9 954 1 0
"100-1-3" 4 3 "PRACTICE" -20 3 4 0 0 203180 2 880 1 0 956 1 0
"100-1-3" 4 3 "PRACTICE" -19 3 3 1 0 205126 1 935 1 0 945 1 0
"100-1-3" 4 3 "PRACTICE" -18 3 2 0 1 207088 2 830 1 9 836 1 0
"100-1-3" 4 3 "TEST" 1 3 1 1 1 209104 1 641 1 9 645 1 0
"100-1-3" 4 3 "TEST" 2 3 3 1 0 210797 1 1332 1 0 1328 1 0
"100-1-3" 4 3 "TEST" 3 3 2 0 1 213449 2 1080 1 9 1210 1 0
"100-1-3" 4 3 "TEST" 4 3 4 0 0 215948 2 886 1 0 952 1 0
"100-1-3" 4 3 "TEST" 5 3 2 0 1 217969 2 788 1 9 902 1 0
"100-1-3" 4 3 "TEST" 6 3 1 1 1 219745 1 625 1 9 641 1 0
"100-1-3" 4 3 "TEST" 7 3 3 1 0 221527 1 662 1 0 666 1 0
"100-1-3" 4 3 "TEST" 8 3 4 0 0 223338 2 518 1 0 521 1 0
"100-1-3" 4 3 "TEST" 9 3 3 1 0 224742 1 659 1 0 663 1 0
"100-1-3" 4 3 "TEST" 10 3 4 0 0 226588 2 471 1 0 466 1 0
"100-1-3" 4 3 "TEST" 11 3 1 1 1 228316 1 514 1 9 510 1 0
"100-1-3" 4 3 "TEST" 12 3 2 0 1 229703 2 825 1 9 809 1 0
"100-1-3" 4 3 "TEST" 13 3 3 1 0 231533 1 630 1 0 635 1 0
"100-1-3" 4 3 "TEST" 14 3 4 0 0 233070 2 545 1 0 549 1 0
"100-1-3" 4 3 "TEST" 15 3 2 0 1 234507 2 578 1 9 583 1 0
"100-1-3" 4 3 "TEST" 16 3 1 1 1 236059 1 492 1 9 496 1 0
"100-1-3" 4 3 "TEST" 17 3 3 1 0 237704 1 492 1 0 478 1 0
"100-1-3" 4 3 "TEST" 18 3 4 0 0 239187 2 513 1 0 504 1 0
"100-1-3" 4 3 "TEST" 19 3 2 0 1 240781 2 562 1 9 566 1 0
"100-1-3" 4 3 "TEST" 20 3 1 1 1 242634 1 460 1 9 464 1 0
"100-1-3" 4 3 "TEST" 21 3 2 0 1 244107 2 826 1 9 830 1 0
"100-1-3" 4 3 "TEST" 22 3 4 0 0 245784 2 519 1 0 515 1 0
"100-1-3" 4 3 "TEST" 23 3 3 1 0 247343 1 993 1 0 997 1 0
"100-1-3" 4 3 "TEST" 24 3 1 1 1 249193 1 544 1 9 540 1 0
"100-1-3" 4 3 "TEST" 25 3 2 0 1 250632 2 698 1 9 706 1 0
"100-2-1" 4 1 "PRACTICE" -25 1 1 1 1 12563 2 504 0 NA 0 0 0
"100-2-1" 4 1 "PRACTICE" -24 1 2 0 1 14744 NA 0 0 NA 0 0 1
"100-2-1" 4 1 "PRACTICE" -23 1 3 1 0 21482 1 572 1 NA 0 0 0
"100-2-1" 4 1 "PRACTICE" -22 1 4 0 0 22973 2 527 1 NA 0 0 0
"100-2-1" 4 1 "PRACTICE" -21 1 1 1 1 24748 1 388 1 NA 0 0 0
"100-2-1" 4 1 "PRACTICE" -20 1 4 0 0 26104 2 432 1 NA 0 0 0
"100-2-1" 4 1 "PRACTICE" -19 1 2 0 1 27474 2 672 1 NA 0 0 0
"100-2-1" 4 1 "PRACTICE" -18 1 3 1 0 29300 1 394 1 NA 0 0 0
"100-2-1" 4 1 "TEST" 1 1 3 1 0 30611 1 454 1 NA 0 0 0
"100-2-1" 4 1 "TEST" 2 1 4 0 0 32389 2 393 1 NA 0 0 0
"100-2-1" 4 1 "TEST" 3 1 1 1 1 33716 1 384 1 NA 0 0 0
"100-2-1" 4 1 "TEST" 4 1 2 0 1 35320 2 379 1 NA 0 0 0
"100-2-1" 4 1 "TEST" 5 1 4 0 0 36656 2 422 1 NA 0 0 0
"100-2-1" 4 1 "TEST" 6 1 1 1 1 38303 1 372 1 NA 0 0 0
"100-2-1" 4 1 "TEST" 7 1 2 0 1 39639 2 500 1 NA 0 0 0
"100-2-1" 4 1 "TEST" 8 1 3 1 0 41152 1 406 1 NA 0 0 0
"100-2-1" 4 1 "TEST" 9 1 4 0 0 42758 2 432 1 NA 0 0 0
"100-2-1" 4 1 "TEST" 10 1 2 0 1 44526 2 555 1 NA 0 0 0
"100-2-1" 4 1 "TEST" 11 1 1 1 1 46421 1 472 1 NA 0 0 0
"100-2-1" 4 1 "TEST" 12 1 3 1 0 47830 1 573 1 NA 0 0 0
"100-2-1" 4 1 "TEST" 13 1 4 0 0 49500 2 444 1 NA 0 0 0
"100-2-1" 4 1 "TEST" 14 1 1 1 1 51113 1 366 1 NA 0 0 0
"100-2-1" 4 1 "TEST" 15 1 2 0 1 52715 2 456 1 NA 0 0 0
"100-2-1" 4 1 "TEST" 16 1 3 1 0 54388 1 470 1 NA 0 0 0
"100-2-1" 4 1 "TEST" 17 1 1 1 1 55852 1 362 1 NA 0 0 0
"100-2-1" 4 1 "TEST" 18 1 2 0 1 57544 2 418 1 NA 0 0 0
"100-2-1" 4 1 "TEST" 19 1 4 0 0 59100 2 400 1 NA 0 0 0
"100-2-1" 4 1 "TEST" 20 1 3 1 0 60568 1 380 1 NA 0 0 0
"100-2-1" 4 1 "TEST" 21 1 2 0 1 61951 2 374 1 NA 0 0 0
"100-2-1" 4 1 "TEST" 22 1 4 0 0 63226 2 382 1 NA 0 0 0
"100-2-1" 4 1 "TEST" 23 1 1 1 1 64817 1 355 1 NA 0 0 0
"100-2-1" 4 1 "TEST" 24 1 3 1 0 66338 1 405 1 NA 0 0 0
"100-2-1" 4 1 "TEST" 25 1 1 1 1 67642 1 366 1 NA 0 0 0
"100-2-1" 4 2 "PRACTICE" -25 2 1 1 1 81558 NA 0 0 9 524 1 0
"100-2-1" 4 2 "PRACTICE" -24 2 2 0 1 83029 NA 0 0 9 503 1 0
"100-2-1" 4 2 "PRACTICE" -23 2 3 1 0 84549 NA 0 0 0 385 1 0
"100-2-1" 4 2 "PRACTICE" -22 2 4 0 0 86095 NA 0 0 0 364 1 0
"100-2-1" 4 2 "PRACTICE" -21 2 4 0 0 87512 NA 0 0 0 365 1 0
"100-2-1" 4 2 "PRACTICE" -20 2 3 1 0 88860 NA 0 0 0 442 1 0
"100-2-1" 4 2 "PRACTICE" -19 2 1 1 1 90214 NA 0 0 9 408 1 0
"100-2-1" 4 2 "PRACTICE" -18 2 2 0 1 91757 NA 0 0 9 406 1 0
"100-2-1" 4 2 "TEST" 1 2 2 0 1 93321 NA 0 0 9 386 1 0
"100-2-1" 4 2 "TEST" 2 2 1 1 1 94849 NA 0 0 9 367 1 0
"100-2-1" 4 2 "TEST" 3 2 4 0 0 96538 NA 0 0 0 437 1 0
"100-2-1" 4 2 "TEST" 4 2 3 1 0 98229 NA 0 0 0 406 1 0
"100-2-1" 4 2 "TEST" 5 2 2 0 1 99882 NA 0 0 9 436 1 0
"100-2-1" 4 2 "TEST" 6 2 3 1 0 101373 NA 0 0 0 375 1 0
"100-2-1" 4 2 "TEST" 7 2 4 0 0 102783 NA 0 0 0 365 1 0
"100-2-1" 4 2 "TEST" 8 2 1 1 1 104026 NA 0 0 9 378 1 0
"100-2-1" 4 2 "TEST" 9 2 4 0 0 105319 NA 0 0 0 336 1 0
"100-2-1" 4 2 "TEST" 10 2 2 0 1 106820 NA 0 0 9 378 1 0
"100-2-1" 4 2 "TEST" 11 2 3 1 0 108466 NA 0 0 0 342 1 0
"100-2-1" 4 2 "TEST" 12 2 1 1 1 109712 NA 0 0 9 446 1 0
"100-2-1" 4 2 "TEST" 13 2 4 0 0 111067 NA 0 0 0 358 1 0
"100-2-1" 4 2 "TEST" 14 2 1 1 1 112562 NA 0 0 9 384 1 0
"100-2-1" 4 2 "TEST" 15 2 3 1 0 113944 NA 0 0 0 389 1 0
"100-2-1" 4 2 "TEST" 16 2 2 0 1 115593 NA 0 0 9 372 1 0
"100-2-1" 4 2 "TEST" 17 2 4 0 0 117188 NA 0 0 0 336 1 0
"100-2-1" 4 2 "TEST" 18 2 1 1 1 118453 NA 0 0 9 404 1 0
"100-2-1" 4 2 "TEST" 19 2 3 1 0 120165 NA 0 0 0 388 1 0
"100-2-1" 4 2 "TEST" 20 2 2 0 1 121620 NA 0 0 9 410 1 0
"100-2-1" 4 2 "TEST" 21 2 3 1 0 123186 NA 0 0 0 341 1 0
"100-2-1" 4 2 "TEST" 22 2 4 0 0 124407 NA 0 0 0 394 1 0
"100-2-1" 4 2 "TEST" 23 2 2 0 1 126013 NA 0 0 9 375 1 0
"100-2-1" 4 2 "TEST" 24 2 1 1 1 127376 NA 0 0 9 388 1 0
"100-2-1" 4 2 "TEST" 25 2 2 0 1 128621 NA 0 0 9 378 1 0
"100-2-1" 4 3 "PRACTICE" -25 3 2 0 1 137553 2 699 1 9 736 1 0
"100-2-1" 4 3 "PRACTICE" -24 3 4 0 0 139507 2 804 1 0 809 1 0
"100-2-1" 4 3 "PRACTICE" -23 3 3 1 0 141433 1 1124 1 0 1155 1 0
"100-2-1" 4 3 "PRACTICE" -22 3 1 1 1 143659 1 660 1 9 682 1 0
"100-2-1" 4 3 "PRACTICE" -21 3 4 0 0 145417 2 604 1 0 651 1 0
"100-2-1" 4 3 "PRACTICE" -20 3 2 0 1 147232 2 622 1 9 626 1 0
"100-2-1" 4 3 "PRACTICE" -19 3 1 1 1 149004 1 702 1 9 715 1 0
"100-2-1" 4 3 "PRACTICE" -18 3 3 1 0 150813 1 939 1 0 956 1 0
"100-2-1" 4 3 "TEST" 1 3 1 1 1 152730 1 508 1 9 515 1 0
"100-2-1" 4 3 "TEST" 2 3 4 0 0 154168 2 502 1 0 498 1 0
"100-2-1" 4 3 "TEST" 3 3 2 0 1 155686 2 563 1 9 566 1 0
"100-2-1" 4 3 "TEST" 4 3 3 1 0 157344 1 532 1 0 537 1 0
"100-2-1" 4 3 "TEST" 5 3 2 0 1 158993 2 503 1 9 492 1 0
"100-2-1" 4 3 "TEST" 6 3 1 1 1 160661 1 706 1 9 702 1 0
"100-2-1" 4 3 "TEST" 7 3 4 0 0 162695 2 449 1 0 477 1 0
"100-2-1" 4 3 "TEST" 8 3 3 1 0 164181 1 696 1 0 754 1 0
"100-2-1" 4 3 "TEST" 9 3 4 0 0 166087 2 485 1 0 539 1 0
"100-2-1" 4 3 "TEST" 10 3 1 1 1 167959 1 562 1 9 569 1 0
"100-2-1" 4 3 "TEST" 11 3 2 0 1 169728 2 699 1 9 703 1 0
"100-2-1" 4 3 "TEST" 12 3 3 1 0 171544 1 650 1 0 666 1 0
"100-2-1" 4 3 "TEST" 13 3 4 0 0 173075 2 596 1 0 601 1 0
"100-2-1" 4 3 "TEST" 14 3 1 1 1 175023 1 444 1 9 467 1 0
"100-2-1" 4 3 "TEST" 15 3 2 0 1 176748 2 835 1 9 831 1 0
"100-2-1" 4 3 "TEST" 16 3 3 1 0 178568 1 578 1 0 583 1 0
"100-2-1" 4 3 "TEST" 17 3 2 0 1 180380 2 480 1 9 493 1 0
"100-2-1" 4 3 "TEST" 18 3 3 1 0 181992 1 532 1 0 545 1 0
"100-2-1" 4 3 "TEST" 19 3 4 0 0 183581 2 561 1 0 552 1 0
"100-2-1" 4 3 "TEST" 20 3 1 1 1 185054 1 534 1 9 529 1 0
"100-2-1" 4 3 "TEST" 21 3 3 1 0 186931 1 810 1 0 818 1 0
"100-2-1" 4 3 "TEST" 22 3 4 0 0 189000 2 578 1 0 582 1 0
"100-2-1" 4 3 "TEST" 23 3 1 1 1 190757 1 469 1 9 474 1 0
"100-2-1" 4 3 "TEST" 24 3 2 0 1 192251 2 956 1 9 961 1 0
"100-2-1" 4 3 "TEST" 25 3 3 1 0 194422 1 512 1 0 505 1 0
"100-2-2" 4 1 "PRACTICE" -25 1 3 1 0 10608 1 478 1 NA 0 0 0
"100-2-2" 4 1 "PRACTICE" -24 1 4 0 0 11949 2 551 1 NA 0 0 0
"100-2-2" 4 1 "PRACTICE" -23 1 1 1 1 13594 1 456 1 NA 0 0 0
"100-2-2" 4 1 "PRACTICE" -22 1 2 0 1 14957 2 532 1 NA 0 0 0
"100-2-2" 4 1 "PRACTICE" -21 1 3 1 0 16389 1 460 1 NA 0 0 0
"100-2-2" 4 1 "PRACTICE" -20 1 4 0 0 17783 2 418 1 NA 0 0 0
"100-2-2" 4 1 "PRACTICE" -19 1 1 1 1 19191 1 355 1 NA 0 0 0
"100-2-2" 4 1 "PRACTICE" -18 1 2 0 1 20597 2 401 1 NA 0 0 0
"100-2-2" 4 1 "TEST" 1 1 1 1 1 22283 1 354 1 NA 0 0 0
"100-2-2" 4 1 "TEST" 2 1 2 0 1 23842 2 396 1 NA 0 0 0
"100-2-2" 4 1 "TEST" 3 1 4 0 0 25556 2 460 1 NA 0 0 0
"100-2-2" 4 1 "TEST" 4 1 3 1 0 27085 1 422 1 NA 0 0 0
"100-2-2" 4 1 "TEST" 5 1 2 0 1 28728 2 410 1 NA 0 0 0
"100-2-2" 4 1 "TEST" 6 1 1 1 1 30141 1 451 1 NA 0 0 0
"100-2-2" 4 1 "TEST" 7 1 4 0 0 31692 2 394 1 NA 0 0 0
"100-2-2" 4 1 "TEST" 8 1 3 1 0 33420 1 374 1 NA 0 0 0
"100-2-2" 4 1 "TEST" 9 1 1 1 1 35122 1 384 1 NA 0 0 0
"100-2-2" 4 1 "TEST" 10 1 4 0 0 36704 2 396 1 NA 0 0 0
"100-2-2" 4 1 "TEST" 11 1 2 0 1 38181 2 526 1 NA 0 0 0
"100-2-2" 4 1 "TEST" 12 1 3 1 0 39836 1 521 1 NA 0 0 0
"100-2-2" 4 1 "TEST" 13 1 1 1 1 41498 1 400 1 NA 0 0 0
"100-2-2" 4 1 "TEST" 14 1 3 1 0 43014 1 467 1 NA 0 0 0
"100-2-2" 4 1 "TEST" 15 1 4 0 0 44477 2 425 1 NA 0 0 0
"100-2-2" 4 1 "TEST" 16 1 2 0 1 46033 2 423 1 NA 0 0 0
"100-2-2" 4 1 "TEST" 17 1 1 1 1 47519 1 329 1 NA 0 0 0
"100-2-2" 4 1 "TEST" 18 1 4 0 0 48794 2 375 1 NA 0 0 0
"100-2-2" 4 1 "TEST" 19 1 3 1 0 50051 1 382 1 NA 0 0 0
"100-2-2" 4 1 "TEST" 20 1 2 0 1 51648 2 724 1 NA 0 0 0
"100-2-2" 4 1 "TEST" 21 1 4 0 0 53690 2 446 1 NA 0 0 0
"100-2-2" 4 1 "TEST" 22 1 3 1 0 55027 1 473 1 NA 0 0 0
"100-2-2" 4 1 "TEST" 23 1 1 1 1 56385 1 458 1 NA 0 0 0
"100-2-2" 4 1 "TEST" 24 1 2 0 1 57932 2 464 1 NA 0 0 0
"100-2-2" 4 1 "TEST" 25 1 3 1 0 59607 1 545 1 NA 0 0 0
"100-2-2" 4 2 "PRACTICE" -25 2 4 0 0 66605 NA 0 0 0 510 1 0
"100-2-2" 4 2 "PRACTICE" -24 2 1 1 1 68397 NA 0 0 9 451 1 0
"100-2-2" 4 2 "PRACTICE" -23 2 3 1 0 70161 NA 0 0 0 393 1 0
"100-2-2" 4 2 "PRACTICE" -22 2 2 0 1 71724 NA 0 0 9 438 1 0
"100-2-2" 4 2 "PRACTICE" -21 2 3 1 0 73185 NA 0 0 0 386 1 0
"100-2-2" 4 2 "PRACTICE" -20 2 2 0 1 74637 NA 0 0 9 406 1 0
"100-2-2" 4 2 "PRACTICE" -19 2 1 1 1 76275 NA 0 0 9 416 1 0
"100-2-2" 4 2 "PRACTICE" -18 2 4 0 0 77962 NA 0 0 0 364 1 0
"100-2-2" 4 2 "TEST" 1 2 2 0 1 79333 NA 0 0 9 417 1 0
"100-2-2" 4 2 "TEST" 2 2 3 1 0 80814 NA 0 0 0 350 1 0
"100-2-2" 4 2 "TEST" 3 2 4 0 0 82018 NA 0 0 0 403 1 0
"100-2-2" 4 2 "TEST" 4 2 1 1 1 83502 NA 0 0 9 447 1 0
"100-2-2" 4 2 "TEST" 5 2 3 1 0 84911 NA 0 0 0 374 1 0
"100-2-2" 4 2 "TEST" 6 2 2 0 1 86133 NA 0 0 9 392 1 0
"100-2-2" 4 2 "TEST" 7 2 1 1 1 87758 NA 0 0 9 436 1 0
"100-2-2" 4 2 "TEST" 8 2 4 0 0 89122 NA 0 0 0 425 1 0
"100-2-2" 4 2 "TEST" 9 2 3 1 0 90761 NA 0 0 0 384 1 0
"100-2-2" 4 2 "TEST" 10 2 2 0 1 92397 NA 0 0 9 398 1 0
"100-2-2" 4 2 "TEST" 11 2 1 1 1 93865 NA 0 0 9 428 1 0
"100-2-2" 4 2 "TEST" 12 2 4 0 0 95464 NA 0 0 0 366 1 0
"100-2-2" 4 2 "TEST" 13 2 1 1 1 96696 NA 0 0 9 412 1 0
"100-2-2" 4 2 "TEST" 14 2 3 1 0 98219 NA 0 0 0 355 1 0
"100-2-2" 4 2 "TEST" 15 2 2 0 1 99767 NA 0 0 9 421 1 0
"100-2-2" 4 2 "TEST" 16 2 4 0 0 101435 NA 0 0 0 353 1 0
"100-2-2" 4 2 "TEST" 17 2 2 0 1 103033 NA 0 0 9 421 1 0
"100-2-2" 4 2 "TEST" 18 2 1 1 1 104690 NA 0 0 9 423 1 0
"100-2-2" 4 2 "TEST" 19 2 3 1 0 106161 NA 0 0 0 472 1 0
"100-2-2" 4 2 "TEST" 20 2 4 0 0 107949 NA 0 0 0 376 1 0
"100-2-2" 4 2 "TEST" 21 2 3 1 0 109433 NA 0 0 0 457 1 0
"100-2-2" 4 2 "TEST" 22 2 2 0 1 111000 NA 0 0 9 396 1 0
"100-2-2" 4 2 "TEST" 23 2 1 1 1 112691 NA 0 0 9 482 1 0
"100-2-2" 4 2 "TEST" 24 2 4 0 0 114093 NA 0 0 0 529 1 0
"100-2-2" 4 2 "TEST" 25 2 2 0 1 115674 NA 0 0 9 405 1 0
"100-2-2" 4 3 "PRACTICE" -25 3 1 1 1 121656 1 748 1 9 756 1 0
"100-2-2" 4 3 "PRACTICE" -24 3 4 0 0 123371 2 716 1 0 720 1 0
"100-2-2" 4 3 "PRACTICE" -23 3 3 1 0 124996 1 663 1 0 681 1 0
"100-2-2" 4 3 "PRACTICE" -22 3 2 0 1 126949 2 509 1 9 502 1 0
"100-2-2" 4 3 "PRACTICE" -21 3 1 1 1 128530 1 483 1 9 487 1 0
"100-2-2" 4 3 "PRACTICE" -20 3 3 1 0 130170 1 584 1 0 588 1 0
"100-2-2" 4 3 "PRACTICE" -19 3 4 0 0 131846 2 464 1 0 452 1 0
"100-2-2" 4 3 "PRACTICE" -18 3 2 0 1 133371 2 510 1 9 498 1 0
"100-2-2" 4 3 "TEST" 1 3 2 0 1 135111 2 451 1 9 446 1 0
"100-2-2" 4 3 "TEST" 2 3 1 1 1 136506 1 503 1 9 506 1 0
"100-2-2" 4 3 "TEST" 3 3 4 0 0 138277 2 406 1 0 401 1 0
"100-2-2" 4 3 "TEST" 4 3 3 1 0 139972 1 568 1 0 579 1 0
"100-2-2" 4 3 "TEST" 5 3 2 0 1 141567 2 558 1 0 576 0 0
"100-2-2" 4 3 "TEST" 6 3 1 1 1 143679 1 571 1 9 566 1 0
"100-2-2" 4 3 "TEST" 7 3 4 0 0 145164 2 543 1 0 534 1 0
"100-2-2" 4 3 "TEST" 8 3 3 1 0 146759 1 522 1 0 519 1 0
"100-2-2" 4 3 "TEST" 9 3 1 1 1 148581 1 549 1 9 554 1 0
"100-2-2" 4 3 "TEST" 10 3 2 0 1 150005 2 631 1 9 626 1 0
"100-2-2" 4 3 "TEST" 11 3 3 1 0 151735 1 523 1 0 531 1 0
"100-2-2" 4 3 "TEST" 12 3 4 0 0 153395 2 460 1 0 456 1 0
"100-2-2" 4 3 "TEST" 13 3 1 1 1 154963 1 444 1 9 448 1 0
"100-2-2" 4 3 "TEST" 14 3 3 1 0 156532 1 466 1 0 462 1 0
"100-2-2" 4 3 "TEST" 15 3 4 0 0 157914 2 490 1 0 480 1 0
"100-2-2" 4 3 "TEST" 16 3 2 0 1 159589 2 544 1 9 538 1 0
"100-2-2" 4 3 "TEST" 17 3 3 1 0 161361 1 692 1 0 702 1 0
"100-2-2" 4 3 "TEST" 18 3 1 1 1 163384 1 567 1 9 551 1 0
"100-2-2" 4 3 "TEST" 19 3 4 0 0 165261 2 571 1 0 575 1 0
"100-2-2" 4 3 "TEST" 20 3 2 0 1 166827 2 634 1 9 639 1 0
"100-2-2" 4 3 "TEST" 21 3 1 1 1 168372 1 558 1 9 562 1 0
"100-2-2" 4 3 "TEST" 22 3 2 0 1 169804 2 624 1 9 614 1 0
"100-2-2" 4 3 "TEST" 23 3 4 0 0 171369 2 534 1 0 544 1 0
"100-2-2" 4 3 "TEST" 24 3 3 1 0 173199 1 496 1 9 519 0 0
"100-2-2" 4 3 "TEST" 25 3 4 0 0 175214 2 530 1 0 526 1 0
"100-2-3" 4 1 "PRACTICE" -25 1 4 0 0 8921 2 529 1 NA 0 0 0
"100-2-3" 4 1 "PRACTICE" -24 1 1 1 1 10387 1 446 1 NA 0 0 0
"100-2-3" 4 1 "PRACTICE" -23 1 2 0 1 11859 2 493 1 NA 0 0 0
"100-2-3" 4 1 "PRACTICE" -22 1 3 1 0 13225 1 423 1 NA 0 0 0
"100-2-3" 4 1 "PRACTICE" -21 1 1 1 1 14583 1 396 1 NA 0 0 0
"100-2-3" 4 1 "PRACTICE" -20 1 2 0 1 15875 2 440 1 NA 0 0 0
"100-2-3" 4 1 "PRACTICE" -19 1 3 1 0 17319 1 341 1 NA 0 0 0
"100-2-3" 4 1 "PRACTICE" -18 1 4 0 0 18808 2 421 1 NA 0 0 0
"100-2-3" 4 1 "TEST" 1 1 2 0 1 20541 2 450 1 NA 0 0 0
"100-2-3" 4 1 "TEST" 2 1 4 0 0 22274 2 429 1 NA 0 0 0
"100-2-3" 4 1 "TEST" 3 1 1 1 1 23735 1 436 1 NA 0 0 0
"100-2-3" 4 1 "TEST" 4 1 3 1 0 25303 1 422 1 NA 0 0 0
"100-2-3" 4 1 "TEST" 5 1 4 0 0 26715 2 444 1 NA 0 0 0
"100-2-3" 4 1 "TEST" 6 1 3 1 0 28129 1 387 1 NA 0 0 0
"100-2-3" 4 1 "TEST" 7 1 2 0 1 29527 2 415 1 NA 0 0 0
"100-2-3" 4 1 "TEST" 8 1 1 1 1 31096 1 371 1 NA 0 0 0
"100-2-3" 4 1 "TEST" 9 1 3 1 0 32580 1 480 1 NA 0 0 0
"100-2-3" 4 1 "TEST" 10 1 4 0 0 34341 2 417 1 NA 0 0 0
"100-2-3" 4 1 "TEST" 11 1 1 1 1 35973 1 384 1 NA 0 0 0
"100-2-3" 4 1 "TEST" 12 1 2 0 1 37424 2 411 1 NA 0 0 0
"100-2-3" 4 1 "TEST" 13 1 3 1 0 38711 1 398 1 NA 0 0 0
"100-2-3" 4 1 "TEST" 14 1 4 0 0 40344 2 410 1 NA 0 0 0
"100-2-3" 4 1 "TEST" 15 1 2 0 1 41722 2 453 1 NA 0 0 0
"100-2-3" 4 1 "TEST" 16 1 1 1 1 43252 1 375 1 NA 0 0 0
"100-2-3" 4 1 "TEST" 17 1 2 0 1 44541 2 411 1 NA 0 0 0
"100-2-3" 4 1 "TEST" 18 1 1 1 1 46254 1 332 1 NA 0 0 0
"100-2-3" 4 1 "TEST" 19 1 3 1 0 47489 1 492 1 NA 0 0 0
"100-2-3" 4 1 "TEST" 20 1 4 0 0 49166 2 399 1 NA 0 0 0
"100-2-3" 4 1 "TEST" 21 1 1 1 1 50762 1 386 1 NA 0 0 0
"100-2-3" 4 1 "TEST" 22 1 2 0 1 52175 2 424 1 NA 0 0 0
"100-2-3" 4 1 "TEST" 23 1 3 1 0 53931 1 340 1 NA 0 0 0
"100-2-3" 4 1 "TEST" 24 1 4 0 0 55305 2 411 1 NA 0 0 0
"100-2-3" 4 1 "TEST" 25 1 1 1 1 56678 1 355 1 NA 0 0 0
"100-2-3" 4 2 "PRACTICE" -25 2 3 1 0 61929 NA 0 0 0 616 1 0
"100-2-3" 4 2 "PRACTICE" -24 2 4 0 0 63753 NA 0 0 0 446 1 0
"100-2-3" 4 2 "PRACTICE" -23 2 2 0 1 65364 NA 0 0 9 461 1 0
"100-2-3" 4 2 "PRACTICE" -22 2 1 1 1 66915 NA 0 0 9 403 1 0
"100-2-3" 4 2 "PRACTICE" -21 2 3 1 0 68194 NA 0 0 0 444 1 0
"100-2-3" 4 2 "PRACTICE" -20 2 2 0 1 69854 NA 0 0 9 468 1 0
"100-2-3" 4 2 "PRACTICE" -19 2 4 0 0 71447 NA 0 0 0 394 1 0
"100-2-3" 4 2 "PRACTICE" -18 2 1 1 1 73144 NA 0 0 9 383 1 0
"100-2-3" 4 2 "TEST" 1 2 3 1 0 74797 NA 0 0 0 445 1 0
"100-2-3" 4 2 "TEST" 2 2 1 1 1 76244 NA 0 0 9 396 1 0
"100-2-3" 4 2 "TEST" 3 2 2 0 1 77896 NA 0 0 9 512 1 0
"100-2-3" 4 2 "TEST" 4 2 4 0 0 79668 NA 0 0 0 367 1 0
"100-2-3" 4 2 "TEST" 5 2 2 0 1 80909 NA 0 0 9 470 1 0
"100-2-3" 4 2 "TEST" 6 2 4 0 0 82567 NA 0 0 0 412 1 0
"100-2-3" 4 2 "TEST" 7 2 1 1 1 83940 NA 0 0 9 444 1 0
"100-2-3" 4 2 "TEST" 8 2 3 1 0 85665 NA 0 0 0 424 1 0
"100-2-3" 4 2 "TEST" 9 2 2 0 1 87018 NA 0 0 9 552 1 0
"100-2-3" 4 2 "TEST" 10 2 1 1 1 88795 NA 0 0 9 429 1 0
"100-2-3" 4 2 "TEST" 11 2 3 1 0 90280 NA 0 0 0 397 1 0
"100-2-3" 4 2 "TEST" 12 2 4 0 0 91651 NA 0 0 0 391 1 0
"100-2-3" 4 2 "TEST" 13 2 3 1 0 93110 NA 0 0 0 389 1 0
"100-2-3" 4 2 "TEST" 14 2 4 0 0 94618 NA 0 0 0 381 1 0
"100-2-3" 4 2 "TEST" 15 2 2 0 1 96032 NA 0 0 9 451 1 0
"100-2-3" 4 2 "TEST" 16 2 1 1 1 97627 NA 0 0 9 434 1 0
"100-2-3" 4 2 "TEST" 17 2 2 0 1 98927 NA 0 0 9 524 1 0
"100-2-3" 4 2 "TEST" 18 2 4 0 0 100335 NA 0 0 0 390 1 0
"100-2-3" 4 2 "TEST" 19 2 3 1 0 101695 NA 0 0 0 393 1 0
"100-2-3" 4 2 "TEST" 20 2 1 1 1 103098 NA 0 0 9 416 1 0
"100-2-3" 4 2 "TEST" 21 2 2 0 1 104602 NA 0 0 9 399 1 0
"100-2-3" 4 2 "TEST" 22 2 1 1 1 106306 NA 0 0 9 485 1 0
"100-2-3" 4 2 "TEST" 23 2 4 0 0 107818 NA 0 0 0 426 1 0
"100-2-3" 4 2 "TEST" 24 2 3 1 0 109560 NA 0 0 0 444 1 0
"100-2-3" 4 2 "TEST" 25 2 1 1 1 111067 NA 0 0 9 435 1 0
"100-2-3" 4 3 "PRACTICE" -25 3 4 0 0 117215 2 653 1 0 658 1 0
"100-2-3" 4 3 "PRACTICE" -24 3 2 0 1 119087 2 598 1 9 602 1 0
"100-2-3" 4 3 "PRACTICE" -23 3 3 1 0 120729 1 796 1 0 803 1 0
"100-2-3" 4 3 "PRACTICE" -22 3 1 1 1 122574 1 599 1 9 603 1 0
"100-2-3" 4 3 "PRACTICE" -21 3 2 0 1 124369 2 627 1 9 631 1 0
"100-2-3" 4 3 "PRACTICE" -20 3 4 0 0 126309 2 542 1 0 536 1 0
"100-2-3" 4 3 "PRACTICE" -19 3 3 1 0 128180 1 716 1 0 728 1 0
"100-2-3" 4 3 "PRACTICE" -18 3 1 1 1 130170 1 571 1 9 590 1 0
"100-2-3" 4 3 "TEST" 1 3 1 1 1 131693 1 540 1 9 550 1 0
"100-2-3" 4 3 "TEST" 2 3 3 1 0 133587 1 576 1 0 572 1 0
"100-2-3" 4 3 "TEST" 3 3 2 0 1 135191 2 660 1 9 665 1 0
"100-2-3" 4 3 "TEST" 4 3 4 0 0 136835 2 590 1 0 572 1 0
"100-2-3" 4 3 "TEST" 5 3 3 1 0 138576 1 566 1 0 577 1 0
"100-2-3" 4 3 "TEST" 6 3 4 0 0 140312 2 464 1 0 469 1 0
"100-2-3" 4 3 "TEST" 7 3 1 1 1 141827 1 544 1 9 539 1 0
"100-2-3" 4 3 "TEST" 8 3 2 0 1 143361 2 640 1 9 660 1 0
"100-2-3" 4 3 "TEST" 9 3 3 1 0 145184 1 493 1 0 501 1 0
"100-2-3" 4 3 "TEST" 10 3 1 1 1 146547 1 546 1 9 538 1 0
"100-2-3" 4 3 "TEST" 11 3 2 0 1 148199 2 634 1 9 640 1 0
"100-2-3" 4 3 "TEST" 12 3 4 0 0 150015 2 478 1 0 500 1 0
"100-2-3" 4 3 "TEST" 13 3 1 1 1 151393 1 490 1 9 495 1 0
"100-2-3" 4 3 "TEST" 14 3 3 1 0 152763 1 560 1 0 565 1 0
"100-2-3" 4 3 "TEST" 15 3 2 0 1 154550 2 444 1 9 461 1 0
"100-2-3" 4 3 "TEST" 16 3 4 0 0 155942 2 482 1 0 490 1 0
"100-2-3" 4 3 "TEST" 17 3 1 1 1 157422 1 442 1 9 448 1 0
"100-2-3" 4 3 "TEST" 18 3 2 0 1 159078 2 750 1 9 746 1 0
"100-2-3" 4 3 "TEST" 19 3 3 1 0 160699 1 558 1 0 588 1 0
"100-2-3" 4 3 "TEST" 20 3 4 0 0 162306 2 710 1 0 731 1 0
"100-2-3" 4 3 "TEST" 21 3 3 1 0 164042 1 540 1 0 563 1 0
"100-2-3" 4 3 "TEST" 22 3 1 1 1 165710 1 553 1 9 557 1 0
"100-2-3" 4 3 "TEST" 23 3 2 0 1 167531 2 605 1 9 622 1 0
"100-2-3" 4 3 "TEST" 24 3 4 0 0 169062 2 519 1 0 530 1 0
"100-2-3" 4 3 "TEST" 25 3 1 1 1 170474 1 534 1 9 571 1 0
"100-2-4" 4 1 "PRACTICE" -25 1 4 0 0 9567 2 501 1 NA 0 0 0
"100-2-4" 4 1 "PRACTICE" -24 1 1 1 1 11083 1 440 1 NA 0 0 0
"100-2-4" 4 1 "PRACTICE" -23 1 3 1 0 12850 1 415 1 NA 0 0 0
"100-2-4" 4 1 "PRACTICE" -22 1 2 0 1 14134 2 427 1 NA 0 0 0
"100-2-4" 4 1 "PRACTICE" -21 1 1 1 1 15881 1 314 1 NA 0 0 0
"100-2-4" 4 1 "PRACTICE" -20 1 4 0 0 17070 2 439 1 NA 0 0 0
"100-2-4" 4 1 "PRACTICE" -19 1 3 1 0 18824 1 334 1 NA 0 0 0
"100-2-4" 4 1 "PRACTICE" -18 1 2 0 1 20193 2 386 1 NA 0 0 0
"100-2-4" 4 1 "TEST" 1 1 3 1 0 21577 1 387 1 NA 0 0 0
"100-2-4" 4 1 "TEST" 2 1 2 0 1 23210 2 426 1 NA 0 0 0
"100-2-4" 4 1 "TEST" 3 1 1 1 1 24958 1 356 1 NA 0 0 0
"100-2-4" 4 1 "TEST" 4 1 4 0 0 26502 2 405 1 NA 0 0 0
"100-2-4" 4 1 "TEST" 5 1 3 1 0 27870 1 391 1 NA 0 0 0
"100-2-4" 4 1 "TEST" 6 1 1 1 1 29536 1 373 1 NA 0 0 0
"100-2-4" 4 1 "TEST" 7 1 4 0 0 31208 2 429 1 NA 0 0 0
"100-2-4" 4 1 "TEST" 8 1 2 0 1 32665 2 479 1 NA 0 0 0
"100-2-4" 4 1 "TEST" 9 1 3 1 0 34345 2 501 0 NA 0 0 0
"100-2-4" 4 1 "TEST" 10 1 4 0 0 36450 2 408 1 NA 0 0 0
"100-2-4" 4 1 "TEST" 11 1 1 1 1 38170 1 350 1 NA 0 0 0
"100-2-4" 4 1 "TEST" 12 1 2 0 1 39706 2 413 1 NA 0 0 0
"100-2-4" 4 1 "TEST" 13 1 1 1 1 41226 1 371 1 NA 0 0 0
"100-2-4" 4 1 "TEST" 14 1 2 0 1 42510 2 413 1 NA 0 0 0
"100-2-4" 4 1 "TEST" 15 1 4 0 0 43849 2 426 1 NA 0 0 0
"100-2-4" 4 1 "TEST" 16 1 3 1 0 45134 1 368 1 NA 0 0 0
"100-2-4" 4 1 "TEST" 17 1 4 0 0 46662 2 429 1 NA 0 0 0
"100-2-4" 4 1 "TEST" 18 1 2 0 1 48341 2 464 1 NA 0 0 0
"100-2-4" 4 1 "TEST" 19 1 1 1 1 50149 1 371 1 NA 0 0 0
"100-2-4" 4 1 "TEST" 20 1 3 1 0 51704 1 388 1 NA 0 0 0
"100-2-4" 4 1 "TEST" 21 1 1 1 1 53018 1 389 1 NA 0 0 0
"100-2-4" 4 1 "TEST" 22 1 2 0 1 54717 2 426 1 NA 0 0 0
"100-2-4" 4 1 "TEST" 23 1 3 1 0 56192 1 370 1 NA 0 0 0
"100-2-4" 4 1 "TEST" 24 1 4 0 0 57749 2 421 1 NA 0 0 0
"100-2-4" 4 1 "TEST" 25 1 3 1 0 59347 1 374 1 NA 0 0 0
"100-2-4" 4 2 "PRACTICE" -25 2 1 1 1 65468 NA 0 0 9 487 1 0
"100-2-4" 4 2 "PRACTICE" -24 2 3 1 0 66866 NA 0 0 0 405 1 0
"100-2-4" 4 2 "PRACTICE" -23 2 4 0 0 68214 NA 0 0 0 385 1 0
"100-2-4" 4 2 "PRACTICE" -22 2 2 0 1 69870 NA 0 0 9 398 1 0
"100-2-4" 4 2 "PRACTICE" -21 2 3 1 0 71463 NA 0 0 0 376 1 0
"100-2-4" 4 2 "PRACTICE" -20 2 4 0 0 72721 NA 0 0 0 424 1 0
"100-2-4" 4 2 "PRACTICE" -19 2 2 0 1 74333 NA 0 0 9 408 1 0
"100-2-4" 4 2 "PRACTICE" -18 2 1 1 1 76007 NA 0 0 9 401 1 0
"100-2-4" 4 2 "TEST" 1 2 4 0 0 77445 NA 0 0 0 369 1 0
"100-2-4" 4 2 "TEST" 2 2 3 1 0 78801 NA 0 0 0 408 1 0
"100-2-4" 4 2 "TEST" 3 2 2 0 1 80436 NA 0 0 9 503 1 0
"100-2-4" 4 2 "TEST" 4 2 1 1 1 81885 NA 0 0 9 466 1 0
"100-2-4" 4 2 "TEST" 5 2 4 0 0 83523 NA 0 0 0 403 1 0
"100-2-4" 4 2 "TEST" 6 2 1 1 1 84845 NA 0 0 9 581 1 0
"100-2-4" 4 2 "TEST" 7 2 3 1 0 86761 NA 0 0 0 430 1 0
"100-2-4" 4 2 "TEST" 8 2 2 0 1 88306 NA 0 0 9 425 1 0
"100-2-4" 4 2 "TEST" 9 2 3 1 0 89870 NA 0 0 0 466 1 0
"100-2-4" 4 2 "TEST" 10 2 2 0 1 91356 NA 0 0 9 607 1 0
"100-2-4" 4 2 "TEST" 11 2 4 0 0 92928 NA 0 0 0 384 1 0
"100-2-4" 4 2 "TEST" 12 2 1 1 1 94560 NA 0 0 9 427 1 0
"100-2-4" 4 2 "TEST" 13 2 2 0 1 96003 NA 0 0 9 409 1 0
"100-2-4" 4 2 "TEST" 14 2 3 1 0 97553 NA 0 0 0 361 1 0
"100-2-4" 4 2 "TEST" 15 2 4 0 0 98796 NA 0 0 0 415 1 0
"100-2-4" 4 2 "TEST" 16 2 1 1 1 100115 NA 0 0 9 388 1 0
"100-2-4" 4 2 "TEST" 17 2 3 1 0 101618 NA 0 0 0 318 1 0
"100-2-4" 4 2 "TEST" 18 2 1 1 1 103249 NA 0 0 9 424 1 0
"100-2-4" 4 2 "TEST" 19 2 4 0 0 104675 NA 0 0 0 461 1 0
"100-2-4" 4 2 "TEST" 20 2 2 0 1 106134 NA 0 0 9 401 1 0
"100-2-4" 4 2 "TEST" 21 2 1 1 1 107379 NA 0 0 9 422 1 0
"100-2-4" 4 2 "TEST" 22 2 3 1 0 108838 NA 0 0 0 369 1 0
"100-2-4" 4 2 "TEST" 23 2 2 0 1 110069 NA 0 0 9 394 1 0
"100-2-4" 4 2 "TEST" 24 2 4 0 0 111565 NA 0 0 0 340 1 0
"100-2-4" 4 2 "TEST" 25 2 3 1 0 113113 NA 0 0 0 446 1 0
"100-2-4" 4 3 "PRACTICE" -25 3 4 0 0 119901 2 741 1 0 736 1 0
"100-2-4" 4 3 "PRACTICE" -24 3 3 1 0 121977 1 776 1 0 781 1 0
"100-2-4" 4 3 "PRACTICE" -23 3 2 0 1 124033 2 686 1 9 694 1 0
"100-2-4" 4 3 "PRACTICE" -22 3 1 1 1 125745 1 754 1 9 772 1 0
"100-2-4" 4 3 "PRACTICE" -21 3 3 1 0 127851 1 855 1 0 869 1 0
"100-2-4" 4 3 "PRACTICE" -20 3 4 0 0 130020 2 513 1 0 509 1 0
"100-2-4" 4 3 "PRACTICE" -19 3 2 0 1 131807 2 601 1 9 605 1 0
"100-2-4" 4 3 "PRACTICE" -18 3 1 1 1 133548 1 526 1 9 552 1 0
"100-2-4" 4 3 "TEST" 1 3 1 1 1 135324 1 512 1 9 530 1 0
"100-2-4" 4 3 "TEST" 2 3 2 0 1 136928 2 631 1 9 626 1 0
"100-2-4" 4 3 "TEST" 3 3 3 1 0 138650 1 492 1 0 497 1 0
"100-2-4" 4 3 "TEST" 4 3 4 0 0 140053 2 481 1 0 495 1 0
"100-2-4" 4 3 "TEST" 5 3 2 0 1 141459 2 643 1 9 647 1 0
"100-2-4" 4 3 "TEST" 6 3 1 1 1 143274 1 564 1 9 560 1 0
"100-2-4" 4 3 "TEST" 7 3 3 1 0 144750 1 640 1 0 656 1 0
"100-2-4" 4 3 "TEST" 8 3 4 0 0 146262 2 494 1 0 498 1 0
"100-2-4" 4 3 "TEST" 9 3 3 1 0 148010 1 455 1 0 478 1 0
"100-2-4" 4 3 "TEST" 10 3 2 0 1 149436 2 478 1 9 482 1 0
"100-2-4" 4 3 "TEST" 11 3 1 1 1 151144 1 487 1 9 509 1 0
"100-2-4" 4 3 "TEST" 12 3 4 0 0 152659 2 476 1 0 485 1 0
"100-2-4" 4 3 "TEST" 13 3 2 0 1 154041 2 582 1 9 591 1 0
"100-2-4" 4 3 "TEST" 14 3 1 1 1 155624 1 424 1 9 433 1 0
"100-2-4" 4 3 "TEST" 15 3 4 0 0 157336 2 489 1 0 485 1 0
"100-2-4" 4 3 "TEST" 16 3 3 1 0 158692 1 469 1 0 482 1 0
"100-2-4" 4 3 "TEST" 17 3 4 0 0 160070 2 480 1 0 486 1 0
"100-2-4" 4 3 "TEST" 18 3 3 1 0 161807 1 574 1 0 578 1 0
"100-2-4" 4 3 "TEST" 19 3 2 0 1 163630 2 453 1 9 446 1 0
"100-2-4" 4 3 "TEST" 20 3 1 1 1 165296 1 494 1 9 498 1 0
"100-2-4" 4 3 "TEST" 21 3 2 0 1 166657 2 582 1 9 598 1 0
"100-2-4" 4 3 "TEST" 22 3 3 1 0 168551 1 517 1 0 533 1 0
"100-2-4" 4 3 "TEST" 23 3 4 0 0 170008 2 489 1 0 494 1 0
"100-2-4" 4 3 "TEST" 24 3 1 1 1 171704 1 518 1 9 522 1 0
"100-2-4" 4 3 "TEST" 25 3 2 0 1 173439 2 580 1 9 596 1 0
"100-3-1" 4 1 "PRACTICE" -25 1 4 0 0 9132 2 466 1 NA 0 0 0
"100-3-1" 4 1 "PRACTICE" -24 1 2 0 1 10803 2 502 1 NA 0 0 0
"100-3-1" 4 1 "PRACTICE" -23 1 3 1 0 12323 1 462 1 NA 0 0 0
"100-3-1" 4 1 "PRACTICE" -22 1 1 1 1 13834 1 401 1 NA 0 0 0
"100-3-1" 4 1 "PRACTICE" -21 1 3 1 0 15094 1 440 1 NA 0 0 0
"100-3-1" 4 1 "PRACTICE" -20 1 1 1 1 16627 1 358 1 NA 0 0 0
"100-3-1" 4 1 "PRACTICE" -19 1 2 0 1 17999 2 411 1 NA 0 0 0
"100-3-1" 4 1 "PRACTICE" -18 1 4 0 0 19688 2 374 1 NA 0 0 0
"100-3-1" 4 1 "TEST" 1 1 2 0 1 21000 2 430 1 NA 0 0 0
"100-3-1" 4 1 "TEST" 2 1 3 1 0 22622 1 386 1 NA 0 0 0
"100-3-1" 4 1 "TEST" 3 1 1 1 1 24261 1 408 1 NA 0 0 0
"100-3-1" 4 1 "TEST" 4 1 4 0 0 25600 2 394 1 NA 0 0 0
"100-3-1" 4 1 "TEST" 5 1 2 0 1 27042 2 440 1 NA 0 0 0
"100-3-1" 4 1 "TEST" 6 1 4 0 0 28722 2 439 1 NA 0 0 0
"100-3-1" 4 1 "TEST" 7 1 1 1 1 30432 1 359 1 NA 0 0 0
"100-3-1" 4 1 "TEST" 8 1 3 1 0 32098 1 398 1 NA 0 0 0
"100-3-1" 4 1 "TEST" 9 1 2 0 1 33712 2 404 1 NA 0 0 0
"100-3-1" 4 1 "TEST" 10 1 4 0 0 35135 2 408 1 NA 0 0 0
"100-3-1" 4 1 "TEST" 11 1 1 1 1 36557 1 393 1 NA 0 0 0
"100-3-1" 4 1 "TEST" 12 1 3 1 0 38038 1 395 1 NA 0 0 0
"100-3-1" 4 1 "TEST" 13 1 4 0 0 39592 2 406 1 NA 0 0 0
"100-3-1" 4 1 "TEST" 14 1 3 1 0 40953 1 406 1 NA 0 0 0
"100-3-1" 4 1 "TEST" 15 1 1 1 1 42572 1 422 1 NA 0 0 0
"100-3-1" 4 1 "TEST" 16 1 2 0 1 44220 2 447 1 NA 0 0 0
"100-3-1" 4 1 "TEST" 17 1 1 1 1 45947 1 400 1 NA 0 0 0
"100-3-1" 4 1 "TEST" 18 1 2 0 1 47515 2 392 1 NA 0 0 0
"100-3-1" 4 1 "TEST" 19 1 4 0 0 49040 2 384 1 NA 0 0 0
"100-3-1" 4 1 "TEST" 20 1 3 1 0 50714 1 367 1 NA 0 0 0
"100-3-1" 4 1 "TEST" 21 1 1 1 1 52157 1 384 1 NA 0 0 0
"100-3-1" 4 1 "TEST" 22 1 2 0 1 53484 2 436 1 NA 0 0 0
"100-3-1" 4 1 "TEST" 23 1 3 1 0 54887 1 359 1 NA 0 0 0
"100-3-1" 4 1 "TEST" 24 1 4 0 0 56091 2 410 1 NA 0 0 0
"100-3-1" 4 1 "TEST" 25 1 3 1 0 57694 1 356 1 NA 0 0 0
"100-3-1" 4 2 "PRACTICE" -25 2 4 0 0 64989 NA 0 0 0 441 1 0
"100-3-1" 4 2 "PRACTICE" -24 2 2 0 1 66651 NA 0 0 9 460 1 0
"100-3-1" 4 2 "PRACTICE" -23 2 1 1 1 68319 NA 0 0 9 428 1 0
"100-3-1" 4 2 "PRACTICE" -22 2 3 1 0 69946 NA 0 0 0 380 1 0
"100-3-1" 4 2 "PRACTICE" -21 2 3 1 0 71225 NA 0 0 0 395 1 0
"100-3-1" 4 2 "PRACTICE" -20 2 2 0 1 72559 NA 0 0 9 390 1 0
"100-3-1" 4 2 "PRACTICE" -19 2 4 0 0 74113 NA 0 0 0 416 1 0
"100-3-1" 4 2 "PRACTICE" -18 2 1 1 1 75435 NA 0 0 9 390 1 0
"100-3-1" 4 2 "TEST" 1 2 2 0 1 76681 NA 0 0 9 365 1 0
"100-3-1" 4 2 "TEST" 2 2 3 1 0 77971 NA 0 0 0 358 1 0
"100-3-1" 4 2 "TEST" 3 2 4 0 0 79194 NA 0 0 0 353 1 0
"100-3-1" 4 2 "TEST" 4 2 1 1 1 80771 NA 0 0 9 362 1 0
"100-3-1" 4 2 "TEST" 5 2 2 0 1 82273 NA 0 0 9 412 1 0
"100-3-1" 4 2 "TEST" 6 2 4 0 0 83757 NA 0 0 0 404 1 0
"100-3-1" 4 2 "TEST" 7 2 1 1 1 85098 NA 0 0 9 429 1 0
"100-3-1" 4 2 "TEST" 8 2 3 1 0 86561 NA 0 0 0 381 1 0
"100-3-1" 4 2 "TEST" 9 2 2 0 1 87908 NA 0 0 9 382 1 0
"100-3-1" 4 2 "TEST" 10 2 4 0 0 89601 NA 0 0 0 418 1 0
"100-3-1" 4 2 "TEST" 11 2 1 1 1 91065 NA 0 0 9 391 1 0
"100-3-1" 4 2 "TEST" 12 2 3 1 0 92648 NA 0 0 0 393 1 0
"100-3-1" 4 2 "TEST" 13 2 1 1 1 94010 NA 0 0 9 380 1 0
"100-3-1" 4 2 "TEST" 14 2 2 0 1 95333 NA 0 0 9 430 1 0
"100-3-1" 4 2 "TEST" 15 2 3 1 0 96748 NA 0 0 0 370 1 0
"100-3-1" 4 2 "TEST" 16 2 4 0 0 98195 NA 0 0 0 393 1 0
"100-3-1" 4 2 "TEST" 17 2 3 1 0 99649 NA 0 0 0 352 1 0
"100-3-1" 4 2 "TEST" 18 2 4 0 0 100842 NA 0 0 0 385 1 0
"100-3-1" 4 2 "TEST" 19 2 1 1 1 102303 NA 0 0 9 472 1 0
"100-3-1" 4 2 "TEST" 20 2 2 0 1 103928 NA 0 0 9 385 1 0
"100-3-1" 4 2 "TEST" 21 2 3 1 0 105635 NA 0 0 0 397 1 0
"100-3-1" 4 2 "TEST" 22 2 2 0 1 107101 NA 0 0 9 395 1 0
"100-3-1" 4 2 "TEST" 23 2 1 1 1 108369 NA 0 0 9 395 1 0
"100-3-1" 4 2 "TEST" 24 2 4 0 0 109917 NA 0 0 0 360 1 0
"100-3-1" 4 2 "TEST" 25 2 1 1 1 111305 NA 0 0 9 451 1 0
"100-3-1" 4 3 "PRACTICE" -25 3 3 1 0 116882 1 610 1 0 626 1 0
"100-3-1" 4 3 "PRACTICE" -24 3 1 1 1 118437 1 710 1 9 686 1 0
"100-3-1" 4 3 "PRACTICE" -23 3 2 0 1 120350 2 567 1 9 571 1 0
"100-3-1" 4 3 "PRACTICE" -22 3 4 0 0 122220 2 629 1 0 643 1 0
"100-3-1" 4 3 "PRACTICE" -21 3 3 1 0 123772 1 692 1 0 732 1 0
"100-3-1" 4 3 "PRACTICE" -20 3 1 1 1 125704 1 516 1 9 512 1 0
"100-3-1" 4 3 "PRACTICE" -19 3 4 0 0 127436 2 463 1 0 471 1 0
"100-3-1" 4 3 "PRACTICE" -18 3 2 0 1 128907 2 690 1 9 686 1 0
"100-3-1" 4 3 "TEST" 1 3 2 0 1 130617 2 566 1 9 570 1 0
"100-3-1" 4 3 "TEST" 2 3 4 0 0 132128 2 496 1 0 511 1 0
"100-3-1" 4 3 "TEST" 3 3 1 1 1 133706 1 420 1 9 423 1 0
"100-3-1" 4 3 "TEST" 4 3 3 1 0 135400 1 585 1 0 593 1 0
"100-3-1" 4 3 "TEST" 5 3 4 0 0 136960 2 473 1 0 469 1 0
"100-3-1" 4 3 "TEST" 6 3 3 1 0 138546 1 727 1 0 743 1 0
"100-3-1" 4 3 "TEST" 7 3 1 1 1 140608 1 519 1 9 487 1 0
"100-3-1" 4 3 "TEST" 8 3 2 0 1 142078 2 807 1 9 823 1 0
"100-3-1" 4 3 "TEST" 9 3 1 1 1 143861 1 515 1 9 532 1 0
"100-3-1" 4 3 "TEST" 10 3 2 0 1 145439 2 580 1 9 584 1 0
"100-3-1" 4 3 "TEST" 11 3 4 0 0 147276 2 486 1 9 514 0 0
"100-3-1" 4 3 "TEST" 12 3 3 1 0 149326 1 901 1 0 929 1 0
"100-3-1" 4 3 "TEST" 13 3 2 0 1 151455 2 572 1 9 580 1 0
"100-3-1" 4 3 "TEST" 14 3 4 0 0 152932 2 533 1 0 559 1 0
"100-3-1" 4 3 "TEST" 15 3 1 1 1 154407 1 559 1 9 533 1 0
"100-3-1" 4 3 "TEST" 16 3 3 1 0 156153 1 543 1 0 557 1 0
"100-3-1" 4 3 "TEST" 17 3 2 0 1 157779 2 548 1 9 558 1 0
"100-3-1" 4 3 "TEST" 18 3 1 1 1 159433 1 533 1 9 527 1 0
"100-3-1" 4 3 "TEST" 19 3 4 0 0 160948 2 469 1 0 477 1 0
"100-3-1" 4 3 "TEST" 20 3 3 1 0 162576 1 514 1 0 538 1 0
"100-3-1" 4 3 "TEST" 21 3 1 1 1 164365 1 469 1 9 466 1 0
"100-3-1" 4 3 "TEST" 22 3 2 0 1 165929 2 496 1 9 502 1 0
"100-3-1" 4 3 "TEST" 23 3 4 0 0 167350 2 509 1 0 517 1 0
"100-3-1" 4 3 "TEST" 24 3 3 1 0 168719 1 496 1 0 504 1 0
"100-3-1" 4 3 "TEST" 25 3 4 0 0 170497 2 446 1 0 486 1 0
"100-3-2" 4 1 "PRACTICE" -25 1 2 0 1 10035 2 554 1 NA 0 0 0
"100-3-2" 4 1 "PRACTICE" -24 1 3 1 0 11586 1 414 1 NA 0 0 0
"100-3-2" 4 1 "PRACTICE" -23 1 1 1 1 12867 1 396 1 NA 0 0 0
"100-3-2" 4 1 "PRACTICE" -22 1 4 0 0 14566 2 392 1 NA 0 0 0
"100-3-2" 4 1 "PRACTICE" -21 1 3 1 0 16189 1 389 1 NA 0 0 0
"100-3-2" 4 1 "PRACTICE" -20 1 2 0 1 17493 2 500 1 NA 0 0 0
"100-3-2" 4 1 "PRACTICE" -19 1 4 0 0 19132 2 435 1 NA 0 0 0
"100-3-2" 4 1 "PRACTICE" -18 1 1 1 1 20416 1 420 1 NA 0 0 0
"100-3-2" 4 1 "TEST" 1 1 4 0 0 22035 2 443 1 NA 0 0 0
"100-3-2" 4 1 "TEST" 2 1 1 1 1 23590 1 362 1 NA 0 0 0
"100-3-2" 4 1 "TEST" 3 1 3 1 0 25004 1 481 1 NA 0 0 0
"100-3-2" 4 1 "TEST" 4 1 2 0 1 26329 2 590 1 NA 0 0 0
"100-3-2" 4 1 "TEST" 5 1 1 1 1 27832 1 438 1 NA 0 0 0
"100-3-2" 4 1 "TEST" 6 1 4 0 0 29458 2 361 1 NA 0 0 0
"100-3-2" 4 1 "TEST" 7 1 3 1 0 31053 1 380 1 NA 0 0 0
"100-3-2" 4 1 "TEST" 8 1 2 0 1 32711 2 319 1 NA 0 0 0
"100-3-2" 4 1 "TEST" 9 1 1 1 1 34074 1 367 1 NA 0 0 0
"100-3-2" 4 1 "TEST" 10 1 4 0 0 35369 2 363 1 NA 0 0 0
"100-3-2" 4 1 "TEST" 11 1 3 1 0 37017 1 353 1 NA 0 0 0
"100-3-2" 4 1 "TEST" 12 1 2 0 1 38633 2 404 1 NA 0 0 0
"100-3-2" 4 1 "TEST" 13 1 1 1 1 40214 1 375 1 NA 0 0 0
"100-3-2" 4 1 "TEST" 14 1 3 1 0 41666 1 423 1 NA 0 0 0
"100-3-2" 4 1 "TEST" 15 1 4 0 0 43269 2 442 1 NA 0 0 0
"100-3-2" 4 1 "TEST" 16 1 2 0 1 44717 2 434 1 NA 0 0 0
"100-3-2" 4 1 "TEST" 17 1 3 1 0 46342 1 352 1 NA 0 0 0
"100-3-2" 4 1 "TEST" 18 1 4 0 0 48016 2 419 1 NA 0 0 0
"100-3-2" 4 1 "TEST" 19 1 1 1 1 49649 1 436 1 NA 0 0 0
"100-3-2" 4 1 "TEST" 20 1 2 0 1 50988 2 394 1 NA 0 0 0
"100-3-2" 4 1 "TEST" 21 1 3 1 0 52604 1 347 1 NA 0 0 0
"100-3-2" 4 1 "TEST" 22 1 2 0 1 53842 2 429 1 NA 0 0 0
"100-3-2" 4 1 "TEST" 23 1 4 0 0 55154 2 537 1 NA 0 0 0
"100-3-2" 4 1 "TEST" 24 1 1 1 1 56711 1 404 1 NA 0 0 0
"100-3-2" 4 1 "TEST" 25 1 2 0 1 58266 2 376 1 NA 0 0 0
"100-3-2" 4 2 "PRACTICE" -25 2 2 0 1 63958 NA 0 0 0 557 0 0
"100-3-2" 4 2 "PRACTICE" -24 2 3 1 0 65921 NA 0 0 0 496 1 0
"100-3-2" 4 2 "PRACTICE" -23 2 1 1 1 67608 NA 0 0 9 442 1 0
"100-3-2" 4 2 "PRACTICE" -22 2 4 0 0 68994 NA 0 0 0 415 1 0
"100-3-2" 4 2 "PRACTICE" -21 2 4 0 0 70590 NA 0 0 0 432 1 0
"100-3-2" 4 2 "PRACTICE" -20 2 2 0 1 72260 NA 0 0 9 446 1 0
"100-3-2" 4 2 "PRACTICE" -19 2 3 1 0 73575 NA 0 0 0 499 1 0
"100-3-2" 4 2 "PRACTICE" -18 2 1 1 1 75144 NA 0 0 9 463 1 0
"100-3-2" 4 2 "TEST" 1 2 4 0 0 76514 NA 0 0 0 396 1 0
"100-3-2" 4 2 "TEST" 2 2 2 0 1 77995 NA 0 0 9 417 1 0
"100-3-2" 4 2 "TEST" 3 2 1 1 1 79614 NA 0 0 9 458 1 0
"100-3-2" 4 2 "TEST" 4 2 3 1 0 81116 NA 0 0 0 391 1 0
"100-3-2" 4 2 "TEST" 5 2 4 0 0 82759 NA 0 0 0 429 1 0
"100-3-2" 4 2 "TEST" 6 2 2 0 1 84367 NA 0 0 9 410 1 0
"100-3-2" 4 2 "TEST" 7 2 1 1 1 86035 NA 0 0 9 442 1 0
"100-3-2" 4 2 "TEST" 8 2 3 1 0 87650 NA 0 0 0 364 1 0
"100-3-2" 4 2 "TEST" 9 2 1 1 1 89125 NA 0 0 9 386 1 0
"100-3-2" 4 2 "TEST" 10 2 3 1 0 90626 NA 0 0 0 378 1 0
"100-3-2" 4 2 "TEST" 11 2 4 0 0 92167 NA 0 0 0 420 1 0
"100-3-2" 4 2 "TEST" 12 2 2 0 1 93655 NA 0 0 9 564 1 0
"100-3-2" 4 2 "TEST" 13 2 3 1 0 95498 NA 0 0 0 333 1 0
"100-3-2" 4 2 "TEST" 14 2 2 0 1 96712 NA 0 0 9 455 1 0
"100-3-2" 4 2 "TEST" 15 2 4 0 0 98206 NA 0 0 0 343 1 0
"100-3-2" 4 2 "TEST" 16 2 1 1 1 99865 NA 0 0 9 437 1 0
"100-3-2" 4 2 "TEST" 17 2 4 0 0 101283 NA 0 0 0 404 1 0
"100-3-2" 4 2 "TEST" 18 2 3 1 0 102789 NA 0 0 0 412 1 0
"100-3-2" 4 2 "TEST" 19 2 2 0 1 104142 NA 0 0 9 415 1 0
"100-3-2" 4 2 "TEST" 20 2 1 1 1 105447 NA 0 0 9 386 1 0
"100-3-2" 4 2 "TEST" 21 2 2 0 1 107035 NA 0 0 9 414 1 0
"100-3-2" 4 2 "TEST" 22 2 1 1 1 108289 NA 0 0 9 477 1 0
"100-3-2" 4 2 "TEST" 23 2 3 1 0 109606 NA 0 0 0 374 1 0
"100-3-2" 4 2 "TEST" 24 2 4 0 0 110946 NA 0 0 0 418 1 0
"100-3-2" 4 2 "TEST" 25 2 2 0 1 112210 NA 0 0 9 420 1 0
"100-3-2" 4 3 "PRACTICE" -25 3 3 1 0 118656 1 636 1 0 652 1 0
"100-3-2" 4 3 "PRACTICE" -24 3 4 0 0 120618 2 617 1 0 621 1 0
"100-3-2" 4 3 "PRACTICE" -23 3 1 1 1 122232 1 576 1 9 598 1 0
"100-3-2" 4 3 "PRACTICE" -22 3 2 0 1 123786 2 640 1 9 658 1 0
"100-3-2" 4 3 "PRACTICE" -21 3 1 1 1 125694 1 672 1 9 682 1 0
"100-3-2" 4 3 "PRACTICE" -20 3 4 0 0 127349 2 471 1 0 467 1 0
"100-3-2" 4 3 "PRACTICE" -19 3 2 0 1 128663 2 618 1 9 639 1 0
"100-3-2" 4 3 "PRACTICE" -18 3 3 1 0 130172 1 517 1 0 514 1 0
"100-3-2" 4 3 "TEST" 1 3 2 0 1 131995 2 426 1 9 436 1 0
"100-3-2" 4 3 "TEST" 2 3 1 1 1 133321 1 711 1 9 707 1 0
"100-3-2" 4 3 "TEST" 3 3 3 1 0 134906 1 568 1 0 572 1 0
"100-3-2" 4 3 "TEST" 4 3 4 0 0 136762 2 528 1 0 532 1 0
"100-3-2" 4 3 "TEST" 5 3 3 1 0 138343 1 662 1 0 690 1 0
"100-3-2" 4 3 "TEST" 6 3 2 0 1 140258 2 468 1 9 474 1 0
"100-3-2" 4 3 "TEST" 7 3 1 1 1 141928 1 491 1 9 483 1 0
"100-3-2" 4 3 "TEST" 8 3 4 0 0 143734 2 428 1 0 434 1 0
"100-3-2" 4 3 "TEST" 9 3 1 1 1 145233 1 444 1 9 440 1 0
"100-3-2" 4 3 "TEST" 10 3 3 1 0 146804 1 534 1 0 566 1 0
"100-3-2" 4 3 "TEST" 11 3 2 0 1 148221 2 472 1 9 468 1 0
"100-3-2" 4 3 "TEST" 12 3 4 0 0 149820 2 499 1 0 512 1 0
"100-3-2" 4 3 "TEST" 13 3 2 0 1 151548 2 599 1 9 615 1 0
"100-3-2" 4 3 "TEST" 14 3 3 1 0 153369 1 437 1 0 454 1 0
"100-3-2" 4 3 "TEST" 15 3 1 1 1 155014 1 660 1 9 674 1 0
"100-3-2" 4 3 "TEST" 16 3 4 0 0 156576 2 544 1 0 560 1 0
"100-3-2" 4 3 "TEST" 17 3 1 1 1 158202 1 470 1 9 502 1 0
"100-3-2" 4 3 "TEST" 18 3 2 0 1 160002 2 571 1 9 587 1 0
"100-3-2" 4 3 "TEST" 19 3 4 0 0 161459 2 528 1 0 538 1 0
"100-3-2" 4 3 "TEST" 20 3 3 1 0 162849 1 523 1 0 545 1 0
"100-3-2" 4 3 "TEST" 21 3 4 0 0 164360 2 493 1 0 506 1 0
"100-3-2" 4 3 "TEST" 22 3 2 0 1 166117 2 625 1 9 643 1 0
"100-3-2" 4 3 "TEST" 23 3 1 1 1 167622 1 496 1 9 520 1 0
"100-3-2" 4 3 "TEST" 24 3 3 1 0 169001 1 502 1 0 514 1 0
"100-3-2" 4 3 "TEST" 25 3 2 0 1 170376 2 496 1 9 516 1 0
"100-3-3" 4 1 "PRACTICE" -25 1 4 0 0 9236 2 463 1 NA 0 0 0
"100-3-3" 4 1 "PRACTICE" -24 1 1 1 1 10545 1 630 1 NA 0 0 0
"100-3-3" 4 1 "PRACTICE" -23 1 3 1 0 12417 1 456 1 NA 0 0 0
"100-3-3" 4 1 "PRACTICE" -22 1 2 0 1 13925 2 642 1 NA 0 0 0
"100-3-3" 4 1 "PRACTICE" -21 1 3 1 0 15804 1 518 1 NA 0 0 0
"100-3-3" 4 1 "PRACTICE" -20 1 2 0 1 17553 2 583 1 NA 0 0 0
"100-3-3" 4 1 "PRACTICE" -19 1 1 1 1 19270 1 372 1 NA 0 0 0
"100-3-3" 4 1 "PRACTICE" -18 1 4 0 0 20570 2 391 1 NA 0 0 0
"100-3-3" 4 1 "TEST" 1 1 3 1 0 22261 1 345 1 NA 0 0 0
"100-3-3" 4 1 "TEST" 2 1 2 0 1 23591 2 508 1 NA 0 0 0
"100-3-3" 4 1 "TEST" 3 1 1 1 1 25250 1 380 1 NA 0 0 0
"100-3-3" 4 1 "TEST" 4 1 4 0 0 26532 2 457 1 NA 0 0 0
"100-3-3" 4 1 "TEST" 5 1 1 1 1 27918 1 409 1 NA 0 0 0
"100-3-3" 4 1 "TEST" 6 1 2 0 1 29444 2 422 1 NA 0 0 0
"100-3-3" 4 1 "TEST" 7 1 3 1 0 30989 1 412 1 NA 0 0 0
"100-3-3" 4 1 "TEST" 8 1 4 0 0 32370 2 431 1 NA 0 0 0
"100-3-3" 4 1 "TEST" 9 1 2 0 1 33693 2 466 1 NA 0 0 0
"100-3-3" 4 1 "TEST" 10 1 1 1 1 35017 1 415 1 NA 0 0 0
"100-3-3" 4 1 "TEST" 11 1 3 1 0 36567 1 426 1 NA 0 0 0
"100-3-3" 4 1 "TEST" 12 1 4 0 0 37972 2 443 1 NA 0 0 0
"100-3-3" 4 1 "TEST" 13 1 1 1 1 39517 1 432 1 NA 0 0 0
"100-3-3" 4 1 "TEST" 14 1 3 1 0 40793 1 564 1 NA 0 0 0
"100-3-3" 4 1 "TEST" 15 1 2 0 1 42659 2 459 1 NA 0 0 0
"100-3-3" 4 1 "TEST" 16 1 4 0 0 44225 2 423 1 NA 0 0 0
"100-3-3" 4 1 "TEST" 17 1 3 1 0 45907 1 375 1 NA 0 0 0
"100-3-3" 4 1 "TEST" 18 1 1 1 1 47347 1 411 1 NA 0 0 0
"100-3-3" 4 1 "TEST" 19 1 2 0 1 48952 2 390 1 NA 0 0 0
"100-3-3" 4 1 "TEST" 20 1 4 0 0 50191 2 413 1 NA 0 0 0
"100-3-3" 4 1 "TEST" 21 1 2 0 1 51521 2 385 1 NA 0 0 0
"100-3-3" 4 1 "TEST" 22 1 1 1 1 52849 1 374 1 NA 0 0 0
"100-3-3" 4 1 "TEST" 23 1 3 1 0 54261 2 370 0 NA 0 0 0
"100-3-3" 4 1 "TEST" 24 1 4 0 0 56460 2 429 1 NA 0 0 0
"100-3-3" 4 1 "TEST" 25 1 1 1 1 58039 1 400 1 NA 0 0 0
"100-3-3" 4 2 "PRACTICE" -25 2 4 0 0 63482 NA 0 0 0 440 1 0
"100-3-3" 4 2 "PRACTICE" -24 2 3 1 0 65073 NA 0 0 9 388 0 0
"100-3-3" 4 2 "PRACTICE" -23 2 1 1 1 66898 NA 0 0 9 471 1 0
"100-3-3" 4 2 "PRACTICE" -22 2 2 0 1 68472 NA 0 0 9 464 1 0
"100-3-3" 4 2 "PRACTICE" -21 2 2 0 1 70223 NA 0 0 9 456 1 0
"100-3-3" 4 2 "PRACTICE" -20 2 4 0 0 71917 NA 0 0 0 370 1 0
"100-3-3" 4 2 "PRACTICE" -19 2 3 1 0 73241 NA 0 0 0 446 1 0
"100-3-3" 4 2 "PRACTICE" -18 2 1 1 1 74756 NA 0 0 9 406 1 0
"100-3-3" 4 2 "TEST" 1 2 4 0 0 76410 NA 0 0 0 404 1 0
"100-3-3" 4 2 "TEST" 2 2 3 1 0 77780 NA 0 0 0 418 1 0
"100-3-3" 4 2 "TEST" 3 2 2 0 1 79526 NA 0 0 9 424 1 0
"100-3-3" 4 2 "TEST" 4 2 1 1 1 81137 NA 0 0 9 367 1 0
"100-3-3" 4 2 "TEST" 5 2 4 0 0 82577 NA 0 0 0 405 1 0
"100-3-3" 4 2 "TEST" 6 2 2 0 1 84299 NA 0 0 9 382 1 0
"100-3-3" 4 2 "TEST" 7 2 3 1 0 85925 NA 0 0 0 380 1 0
"100-3-3" 4 2 "TEST" 8 2 1 1 1 87475 NA 0 0 9 409 1 0
"100-3-3" 4 2 "TEST" 9 2 3 1 0 88939 NA 0 0 0 399 1 0
"100-3-3" 4 2 "TEST" 10 2 2 0 1 90650 NA 0 0 9 408 1 0
"100-3-3" 4 2 "TEST" 11 2 1 1 1 92286 NA 0 0 9 459 1 0
"100-3-3" 4 2 "TEST" 12 2 4 0 0 93683 NA 0 0 0 408 1 0
"100-3-3" 4 2 "TEST" 13 2 2 0 1 95185 NA 0 0 9 391 1 0
"100-3-3" 4 2 "TEST" 14 2 3 1 0 96631 NA 0 0 0 416 1 0
"100-3-3" 4 2 "TEST" 15 2 1 1 1 98320 NA 0 0 9 375 1 0
"100-3-3" 4 2 "TEST" 16 2 4 0 0 99611 NA 0 0 0 388 1 0
"100-3-3" 4 2 "TEST" 17 2 1 1 1 101045 NA 0 0 9 374 1 0
"100-3-3" 4 2 "TEST" 18 2 4 0 0 102723 NA 0 0 0 333 1 0
"100-3-3" 4 2 "TEST" 19 2 2 0 1 103968 NA 0 0 9 432 1 0
"100-3-3" 4 2 "TEST" 20 2 3 1 0 105662 NA 0 0 0 380 1 0
"100-3-3" 4 2 "TEST" 21 2 4 0 0 106966 NA 0 0 0 376 1 0
"100-3-3" 4 2 "TEST" 22 2 2 0 1 108204 NA 0 0 9 400 1 0
"100-3-3" 4 2 "TEST" 23 2 1 1 1 109533 NA 0 0 9 408 1 0
"100-3-3" 4 2 "TEST" 24 2 3 1 0 110790 NA 0 0 0 348 1 0
"100-3-3" 4 2 "TEST" 25 2 2 0 1 112326 NA 0 0 9 433 1 0
"100-3-3" 4 3 "PRACTICE" -25 3 2 0 1 118045 2 488 1 9 493 1 0
"100-3-3" 4 3 "PRACTICE" -24 3 4 0 0 119545 2 447 1 0 455 1 0
"100-3-3" 4 3 "PRACTICE" -23 3 1 1 1 121062 1 522 1 9 534 1 0
"100-3-3" 4 3 "PRACTICE" -22 3 3 1 0 122572 1 788 1 0 794 1 0
"100-3-3" 4 3 "PRACTICE" -21 3 2 0 1 124628 2 524 1 9 536 1 0
"100-3-3" 4 3 "PRACTICE" -20 3 3 1 0 126407 1 504 1 0 512 1 0
"100-3-3" 4 3 "PRACTICE" -19 3 1 1 1 128137 1 423 1 9 427 1 0
"100-3-3" 4 3 "PRACTICE" -18 3 4 0 0 129605 2 445 1 0 456 1 0
"100-3-3" 4 3 "TEST" 1 3 1 1 1 131150 1 403 1 9 406 1 0
"100-3-3" 4 3 "TEST" 2 3 2 0 1 132537 2 492 1 9 496 1 0
"100-3-3" 4 3 "TEST" 3 3 4 0 0 134308 2 431 1 0 435 1 0
"100-3-3" 4 3 "TEST" 4 3 3 1 0 135674 1 480 1 0 474 1 0
"100-3-3" 4 3 "TEST" 5 3 4 0 0 137360 2 446 1 0 434 1 0
"100-3-3" 4 3 "TEST" 6 3 1 1 1 139064 1 470 1 9 464 1 0
"100-3-3" 4 3 "TEST" 7 3 3 1 0 140468 1 674 1 0 677 1 0
"100-3-3" 4 3 "TEST" 8 3 2 0 1 142402 2 613 1 9 604 1 0
"100-3-3" 4 3 "TEST" 9 3 1 1 1 143974 1 461 1 9 455 1 0
"100-3-3" 4 3 "TEST" 10 3 3 1 0 145363 1 616 1 0 606 1 0
"100-3-3" 4 3 "TEST" 11 3 4 0 0 147317 2 465 1 0 481 1 0
"100-3-3" 4 3 "TEST" 12 3 2 0 1 149103 2 555 1 9 559 1 0
"100-3-3" 4 3 "TEST" 13 3 1 1 1 150762 1 484 1 9 487 1 0
"100-3-3" 4 3 "TEST" 14 3 4 0 0 152341 2 400 1 0 426 1 0
"100-3-3" 4 3 "TEST" 15 3 2 0 1 154036 2 497 1 9 501 1 0
"100-3-3" 4 3 "TEST" 16 3 3 1 0 155759 1 439 1 0 447 1 0
"100-3-3" 4 3 "TEST" 17 3 4 0 0 157058 2 471 1 0 491 1 0
"100-3-3" 4 3 "TEST" 18 3 1 1 1 158888 1 444 1 9 440 1 0
"100-3-3" 4 3 "TEST" 19 3 3 1 0 160291 2 557 0 0 561 1 0
"100-3-3" 4 3 "TEST" 20 3 2 0 1 162347 2 540 1 9 536 1 0
"100-3-3" 4 3 "TEST" 21 3 4 0 0 163922 2 476 1 0 472 1 0
"100-3-3" 4 3 "TEST" 22 3 2 0 1 165520 2 534 1 9 530 1 0
"100-3-3" 4 3 "TEST" 23 3 1 1 1 167172 1 731 1 9 711 1 0
"100-3-3" 4 3 "TEST" 24 3 3 1 0 169009 1 711 1 0 715 1 0
"100-3-3" 4 3 "TEST" 25 3 1 1 1 170910 1 543 1 9 550 1 0
"100-3-4" 4 1 "PRACTICE" -25 1 4 0 0 8681 2 492 1 NA 0 0 0
"100-3-4" 4 1 "PRACTICE" -24 1 3 1 0 10412 1 450 1 NA 0 0 0
"100-3-4" 4 1 "PRACTICE" -23 1 1 1 1 12024 1 426 1 NA 0 0 0
"100-3-4" 4 1 "PRACTICE" -22 1 2 0 1 13631 2 428 1 NA 0 0 0
"100-3-4" 4 1 "PRACTICE" -21 1 2 0 1 14936 2 523 1 NA 0 0 0
"100-3-4" 4 1 "PRACTICE" -20 1 1 1 1 16411 1 448 1 NA 0 0 0
"100-3-4" 4 1 "PRACTICE" -19 1 4 0 0 18097 2 354 1 NA 0 0 0
"100-3-4" 4 1 "PRACTICE" -18 1 3 1 0 19467 1 430 1 NA 0 0 0
"100-3-4" 4 1 "TEST" 1 1 2 0 1 20853 2 440 1 NA 0 0 0
"100-3-4" 4 1 "TEST" 2 1 3 1 0 22422 1 367 1 NA 0 0 0
"100-3-4" 4 1 "TEST" 3 1 4 0 0 23862 2 460 1 NA 0 0 0
"100-3-4" 4 1 "TEST" 4 1 1 1 1 25221 1 386 1 NA 0 0 0
"100-3-4" 4 1 "TEST" 5 1 2 0 1 26624 2 404 1 NA 0 0 0
"100-3-4" 4 1 "TEST" 6 1 3 1 0 28274 1 428 1 NA 0 0 0
"100-3-4" 4 1 "TEST" 7 1 1 1 1 29744 1 511 1 NA 0 0 0
"100-3-4" 4 1 "TEST" 8 1 4 0 0 31517 2 414 1 NA 0 0 0
"100-3-4" 4 1 "TEST" 9 1 1 1 1 32764 1 595 1 NA 0 0 0
"100-3-4" 4 1 "TEST" 10 1 3 1 0 34365 1 507 1 NA 0 0 0
"100-3-4" 4 1 "TEST" 11 1 4 0 0 36183 2 496 1 NA 0 0 0
"100-3-4" 4 1 "TEST" 12 1 2 0 1 37869 2 563 1 NA 0 0 0
"100-3-4" 4 1 "TEST" 13 1 1 1 1 39521 1 418 1 NA 0 0 0
"100-3-4" 4 1 "TEST" 14 1 4 0 0 40775 2 510 1 NA 0 0 0
"100-3-4" 4 1 "TEST" 15 1 3 1 0 42227 1 383 1 NA 0 0 0
"100-3-4" 4 1 "TEST" 16 1 2 0 1 43850 2 440 1 NA 0 0 0
"100-3-4" 4 1 "TEST" 17 1 4 0 0 45472 2 384 1 NA 0 0 0
"100-3-4" 4 1 "TEST" 18 1 1 1 1 46871 1 392 1 NA 0 0 0
"100-3-4" 4 1 "TEST" 19 1 2 0 1 48135 2 566 1 NA 0 0 0
"100-3-4" 4 1 "TEST" 20 1 3 1 0 49711 1 549 1 NA 0 0 0
"100-3-4" 4 1 "TEST" 21 1 1 1 1 51163 1 648 1 NA 0 0 0
"100-3-4" 4 1 "TEST" 22 1 4 0 0 53075 2 590 1 NA 0 0 0
"100-3-4" 4 1 "TEST" 23 1 2 0 1 54645 2 519 1 NA 0 0 0
"100-3-4" 4 1 "TEST" 24 1 3 1 0 56129 1 398 1 NA 0 0 0
"100-3-4" 4 1 "TEST" 25 1 1 1 1 57706 1 339 1 NA 0 0 0
"100-3-4" 4 2 "PRACTICE" -25 2 3 1 0 65406 NA 0 0 0 713 1 0
"100-3-4" 4 2 "PRACTICE" -24 2 2 0 1 67124 NA 0 0 9 442 1 0
"100-3-4" 4 2 "PRACTICE" -23 2 1 1 1 68462 NA 0 0 9 443 1 0
"100-3-4" 4 2 "PRACTICE" -22 2 4 0 0 69770 NA 0 0 0 392 1 0
"100-3-4" 4 2 "PRACTICE" -21 2 3 1 0 71415 NA 0 0 0 357 1 0
"100-3-4" 4 2 "PRACTICE" -20 2 4 0 0 73068 NA 0 0 0 446 1 0
"100-3-4" 4 2 "PRACTICE" -19 2 1 1 1 74545 NA 0 0 9 394 1 0
"100-3-4" 4 2 "PRACTICE" -18 2 2 0 1 76005 NA 0 0 9 402 1 0
"100-3-4" 4 2 "TEST" 1 2 3 1 0 77411 NA 0 0 0 386 1 0
"100-3-4" 4 2 "TEST" 2 2 1 1 1 78777 NA 0 0 9 346 1 0
"100-3-4" 4 2 "TEST" 3 2 4 0 0 80285 NA 0 0 0 398 1 0
"100-3-4" 4 2 "TEST" 4 2 2 0 1 81710 NA 0 0 9 424 1 0
"100-3-4" 4 2 "TEST" 5 2 4 0 0 83357 NA 0 0 0 357 1 0
"100-3-4" 4 2 "TEST" 6 2 1 1 1 84651 NA 0 0 9 442 1 0
"100-3-4" 4 2 "TEST" 7 2 3 1 0 86197 NA 0 0 0 376 1 0
"100-3-4" 4 2 "TEST" 8 2 2 0 1 87892 NA 0 0 9 389 1 0
"100-3-4" 4 2 "TEST" 9 2 4 0 0 89282 NA 0 0 0 366 1 0
"100-3-4" 4 2 "TEST" 10 2 3 1 0 90959 NA 0 0 0 438 1 0
"100-3-4" 4 2 "TEST" 11 2 1 1 1 92328 NA 0 0 9 427 1 0
"100-3-4" 4 2 "TEST" 12 2 2 0 1 94075 NA 0 0 9 404 1 0
"100-3-4" 4 2 "TEST" 13 2 4 0 0 95467 NA 0 0 0 482 1 0
"100-3-4" 4 2 "TEST" 14 2 3 1 0 96934 NA 0 0 0 382 1 0
"100-3-4" 4 2 "TEST" 15 2 2 0 1 98533 NA 0 0 9 381 1 0
"100-3-4" 4 2 "TEST" 16 2 1 1 1 99886 NA 0 0 9 398 1 0
"100-3-4" 4 2 "TEST" 17 2 2 0 1 101534 NA 0 0 9 395 1 0
"100-3-4" 4 2 "TEST" 18 2 3 1 0 102778 NA 0 0 0 400 1 0
"100-3-4" 4 2 "TEST" 19 2 4 0 0 104405 NA 0 0 0 515 1 0
"100-3-4" 4 2 "TEST" 20 2 1 1 1 105778 NA 0 0 9 396 1 0
"100-3-4" 4 2 "TEST" 21 2 4 0 0 107229 NA 0 0 0 372 1 0
"100-3-4" 4 2 "TEST" 22 2 2 0 1 108889 NA 0 0 9 388 1 0
"100-3-4" 4 2 "TEST" 23 2 3 1 0 110346 NA 0 0 0 392 1 0
"100-3-4" 4 2 "TEST" 24 2 1 1 1 111933 NA 0 0 9 379 1 0
"100-3-4" 4 2 "TEST" 25 2 3 1 0 113326 NA 0 0 0 385 1 0
"100-3-4" 4 3 "PRACTICE" -25 3 2 0 1 123016 2 647 1 9 643 1 0
"100-3-4" 4 3 "PRACTICE" -24 3 1 1 1 124766 1 630 1 9 644 1 0
"100-3-4" 4 3 "PRACTICE" -23 3 4 0 0 126579 2 541 1 0 534 1 0
"100-3-4" 4 3 "PRACTICE" -22 3 3 1 0 128328 1 856 1 0 828 1 0
"100-3-4" 4 3 "PRACTICE" -21 3 2 0 1 130194 2 501 1 9 505 1 0
"100-3-4" 4 3 "PRACTICE" -20 3 4 0 0 132019 2 447 1 0 443 1 0
"100-3-4" 4 3 "PRACTICE" -19 3 3 1 0 133619 1 586 1 0 591 1 0
"100-3-4" 4 3 "PRACTICE" -18 3 1 1 1 135533 1 481 1 0 461 0 0
"100-3-4" 4 3 "TEST" 1 3 4 0 0 137657 2 466 1 0 470 1 0
"100-3-4" 4 3 "TEST" 2 3 3 1 0 138978 1 604 1 0 598 1 0
"100-3-4" 4 3 "TEST" 3 3 1 1 1 140614 1 449 1 9 444 1 0
"100-3-4" 4 3 "TEST" 4 3 2 0 1 142021 2 583 1 9 571 1 0
"100-3-4" 4 3 "TEST" 5 3 3 1 0 143443 1 480 1 0 492 1 0
"100-3-4" 4 3 "TEST" 6 3 2 0 1 145207 2 441 1 9 445 1 0
"100-3-4" 4 3 "TEST" 7 3 1 1 1 146959 1 465 1 9 469 1 0
"100-3-4" 4 3 "TEST" 8 3 4 0 0 148636 2 438 1 0 435 1 0
"100-3-4" 4 3 "TEST" 9 3 2 0 1 150274 2 484 1 9 476 1 0
"100-3-4" 4 3 "TEST" 10 3 1 1 1 152078 1 444 1 9 440 1 0
"100-3-4" 4 3 "TEST" 11 3 3 1 0 153493 1 533 1 0 517 1 0
"100-3-4" 4 3 "TEST" 12 3 4 0 0 155348 2 515 1 0 509 1 0
"100-3-4" 4 3 "TEST" 13 3 2 0 1 156994 2 463 1 9 459 1 0
"100-3-4" 4 3 "TEST" 14 3 1 1 1 158475 1 466 1 9 460 1 0
"100-3-4" 4 3 "TEST" 15 3 3 1 0 159832 1 477 1 0 429 1 0
"100-3-4" 4 3 "TEST" 16 3 4 0 0 161302 2 448 1 0 462 1 0
"100-3-4" 4 3 "TEST" 17 3 3 1 0 163059 1 502 1 0 494 1 0
"100-3-4" 4 3 "TEST" 18 3 2 0 1 164509 2 456 1 9 469 1 0
"100-3-4" 4 3 "TEST" 19 3 1 1 1 165888 1 437 1 9 441 1 0
"100-3-4" 4 3 "TEST" 20 3 4 0 0 167608 2 352 1 0 356 1 0
"100-3-4" 4 3 "TEST" 21 3 2 0 1 169100 2 481 1 9 485 1 0
"100-3-4" 4 3 "TEST" 22 3 4 0 0 170781 2 440 1 0 436 1 0
"100-3-4" 4 3 "TEST" 23 3 1 1 1 172457 1 441 1 9 449 1 0
"100-3-4" 4 3 "TEST" 24 3 3 1 0 173763 1 490 1 0 494 1 0
"100-3-4" 4 3 "TEST" 25 3 2 0 1 175168 2 431 1 9 435 1 0
"100-4-1" 4 1 "PRACTICE" -25 1 1 1 1 10815 2 505 0 NA 0 0 0
"100-4-1" 4 1 "PRACTICE" -24 1 4 0 0 12673 2 508 1 NA 0 0 0
"100-4-1" 4 1 "PRACTICE" -23 1 3 1 0 14512 1 413 1 NA 0 0 0
"100-4-1" 4 1 "PRACTICE" -22 1 2 0 1 15843 2 435 1 NA 0 0 0
"100-4-1" 4 1 "PRACTICE" -21 1 2 0 1 17353 2 470 1 NA 0 0 0
"100-4-1" 4 1 "PRACTICE" -20 1 1 1 1 18984 1 334 1 NA 0 0 0
"100-4-1" 4 1 "PRACTICE" -19 1 3 1 0 20417 1 404 1 NA 0 0 0
"100-4-1" 4 1 "PRACTICE" -18 1 4 0 0 21663 2 436 1 NA 0 0 0
"100-4-1" 4 1 "TEST" 1 1 1 1 1 23310 1 324 1 NA 0 0 0
"100-4-1" 4 1 "TEST" 2 1 3 1 0 24839 1 412 1 NA 0 0 0
"100-4-1" 4 1 "TEST" 3 1 4 0 0 26331 2 374 1 NA 0 0 0
"100-4-1" 4 1 "TEST" 4 1 2 0 1 27920 2 498 1 NA 0 0 0
"100-4-1" 4 1 "TEST" 5 1 4 0 0 29713 2 422 1 NA 0 0 0
"100-4-1" 4 1 "TEST" 6 1 1 1 1 31120 1 332 1 NA 0 0 0
"100-4-1" 4 1 "TEST" 7 1 3 1 0 32675 1 370 1 NA 0 0 0
"100-4-1" 4 1 "TEST" 8 1 2 0 1 34059 2 396 1 NA 0 0 0
"100-4-1" 4 1 "TEST" 9 1 3 1 0 35541 1 348 1 NA 0 0 0
"100-4-1" 4 1 "TEST" 10 1 4 0 0 36763 2 368 1 NA 0 0 0
"100-4-1" 4 1 "TEST" 11 1 1 1 1 38390 1 339 1 NA 0 0 0
"100-4-1" 4 1 "TEST" 12 1 2 0 1 40041 2 337 1 NA 0 0 0
"100-4-1" 4 1 "TEST" 13 1 4 0 0 41224 2 441 1 NA 0 0 0
"100-4-1" 4 1 "TEST" 14 1 1 1 1 42576 1 337 1 NA 0 0 0
"100-4-1" 4 1 "TEST" 15 1 3 1 0 44239 1 413 1 NA 0 0 0
"100-4-1" 4 1 "TEST" 16 1 2 0 1 45858 2 433 1 NA 0 0 0
"100-4-1" 4 1 "TEST" 17 1 4 0 0 47384 2 411 1 NA 0 0 0
"100-4-1" 4 1 "TEST" 18 1 3 1 0 48679 1 378 1 NA 0 0 0
"100-4-1" 4 1 "TEST" 19 1 2 0 1 50354 2 395 1 NA 0 0 0
"100-4-1" 4 1 "TEST" 20 1 1 1 1 51800 1 431 1 NA 0 0 0
"100-4-1" 4 1 "TEST" 21 1 2 0 1 53195 2 432 1 NA 0 0 0
"100-4-1" 4 1 "TEST" 22 1 3 1 0 54660 1 350 1 NA 0 0 0
"100-4-1" 4 1 "TEST" 23 1 4 0 0 56264 2 409 1 NA 0 0 0
"100-4-1" 4 1 "TEST" 24 1 1 1 1 57669 1 333 1 NA 0 0 0
"100-4-1" 4 1 "TEST" 25 1 2 0 1 59147 2 445 1 NA 0 0 0
"100-4-1" 4 2 "PRACTICE" -25 2 4 0 0 65320 NA 0 0 0 434 1 0
"100-4-1" 4 2 "PRACTICE" -24 2 3 1 0 66624 NA 0 0 0 484 1 0
"100-4-1" 4 2 "PRACTICE" -23 2 2 0 1 68264 NA 0 0 9 412 1 0
"100-4-1" 4 2 "PRACTICE" -22 2 1 1 1 69852 NA 0 0 9 413 1 0
"100-4-1" 4 2 "PRACTICE" -21 2 3 1 0 71300 NA 0 0 0 352 1 0
"100-4-1" 4 2 "PRACTICE" -20 2 1 1 1 72949 NA 0 0 9 447 1 0
"100-4-1" 4 2 "PRACTICE" -19 2 4 0 0 74380 NA 0 0 0 367 1 0
"100-4-1" 4 2 "PRACTICE" -18 2 2 0 1 75948 NA 0 0 9 399 1 0
"100-4-1" 4 2 "TEST" 1 2 2 0 1 77629 NA 0 0 9 381 1 0
"100-4-1" 4 2 "TEST" 2 2 1 1 1 78909 NA 0 0 9 393 1 0
"100-4-1" 4 2 "TEST" 3 2 4 0 0 80387 NA 0 0 0 327 1 0
"100-4-1" 4 2 "TEST" 4 2 3 1 0 82032 NA 0 0 0 362 1 0
"100-4-1" 4 2 "TEST" 5 2 4 0 0 83648 NA 0 0 0 347 1 0
"100-4-1" 4 2 "TEST" 6 2 3 1 0 85235 NA 0 0 0 368 1 0
"100-4-1" 4 2 "TEST" 7 2 2 0 1 86689 NA 0 0 9 410 1 0
"100-4-1" 4 2 "TEST" 8 2 1 1 1 88042 NA 0 0 9 391 1 0
"100-4-1" 4 2 "TEST" 9 2 3 1 0 89539 NA 0 0 0 343 1 0
"100-4-1" 4 2 "TEST" 10 2 1 1 1 90793 NA 0 0 9 384 1 0
"100-4-1" 4 2 "TEST" 11 2 4 0 0 92412 NA 0 0 0 326 1 0
"100-4-1" 4 2 "TEST" 12 2 2 0 1 93639 NA 0 0 9 431 1 0
"100-4-1" 4 2 "TEST" 13 2 3 1 0 95307 NA 0 0 0 387 1 0
"100-4-1" 4 2 "TEST" 14 2 2 0 1 96985 NA 0 0 9 419 1 0
"100-4-1" 4 2 "TEST" 15 2 1 1 1 98403 NA 0 0 9 374 1 0
"100-4-1" 4 2 "TEST" 16 2 4 0 0 99611 NA 0 0 0 342 1 0
"100-4-1" 4 2 "TEST" 17 2 1 1 1 100886 NA 0 0 9 367 1 0
"100-4-1" 4 2 "TEST" 18 2 4 0 0 102347 NA 0 0 0 344 1 0
"100-4-1" 4 2 "TEST" 19 2 2 0 1 103845 NA 0 0 9 444 1 0
"100-4-1" 4 2 "TEST" 20 2 3 1 0 105181 NA 0 0 0 412 1 0
"100-4-1" 4 2 "TEST" 21 2 4 0 0 106702 NA 0 0 0 307 1 0
"100-4-1" 4 2 "TEST" 22 2 1 1 1 107846 NA 0 0 9 382 1 0
"100-4-1" 4 2 "TEST" 23 2 2 0 1 109457 NA 0 0 9 640 1 0
"100-4-1" 4 2 "TEST" 24 2 3 1 0 111059 NA 0 0 0 416 1 0
"100-4-1" 4 2 "TEST" 25 2 2 0 1 112360 NA 0 0 9 436 1 0
"100-4-1" 4 3 "PRACTICE" -25 3 1 1 1 118461 1 564 1 9 584 1 0
"100-4-1" 4 3 "PRACTICE" -24 3 4 0 0 120283 2 430 1 0 434 1 0
"100-4-1" 4 3 "PRACTICE" -23 3 2 0 1 121816 2 527 1 9 534 1 0
"100-4-1" 4 3 "PRACTICE" -22 3 3 1 0 123438 1 437 1 0 441 1 0
"100-4-1" 4 3 "PRACTICE" -21 3 2 0 1 124763 2 535 1 9 549 1 0
"100-4-1" 4 3 "PRACTICE" -20 3 1 1 1 126309 1 440 1 9 458 1 0
"100-4-1" 4 3 "PRACTICE" -19 3 3 1 0 127796 1 603 1 0 607 1 0
"100-4-1" 4 3 "PRACTICE" -18 3 4 0 0 129417 2 440 1 0 448 1 0
"100-4-1" 4 3 "TEST" 1 3 4 0 0 130871 2 579 1 0 597 1 0
"100-4-1" 4 3 "TEST" 2 3 3 1 0 132520 1 1012 1 0 512 1 0
"100-4-1" 4 3 "TEST" 3 3 1 1 1 134511 1 600 1 9 631 1 0
"100-4-1" 4 3 "TEST" 4 3 2 0 1 136219 2 630 1 9 640 1 0
"100-4-1" 4 3 "TEST" 5 3 1 1 1 137998 1 434 1 9 458 1 0
"100-4-1" 4 3 "TEST" 6 3 4 0 0 139679 2 446 1 0 454 1 0
"100-4-1" 4 3 "TEST" 7 3 3 1 0 141065 1 634 1 0 672 1 0
"100-4-1" 4 3 "TEST" 8 3 2 0 1 143059 2 654 1 9 676 1 0
"100-4-1" 4 3 "TEST" 9 3 1 1 1 144827 1 478 1 9 508 1 0
"100-4-1" 4 3 "TEST" 10 3 2 0 1 146543 2 561 1 9 565 1 0
"100-4-1" 4 3 "TEST" 11 3 3 1 0 148216 1 449 1 0 459 1 0
"100-4-1" 4 3 "TEST" 12 3 4 0 0 149537 2 444 1 0 440 1 0
"100-4-1" 4 3 "TEST" 13 3 2 0 1 150924 2 704 1 9 729 1 0
"100-4-1" 4 3 "TEST" 14 3 1 1 1 152944 1 468 1 9 506 1 0
"100-4-1" 4 3 "TEST" 15 3 3 1 0 154382 1 664 1 0 682 1 0
"100-4-1" 4 3 "TEST" 16 3 4 0 0 156379 2 511 1 0 515 1 0
"100-4-1" 4 3 "TEST" 17 3 3 1 0 157742 1 580 1 0 617 1 0
"100-4-1" 4 3 "TEST" 18 3 1 1 1 159471 1 485 1 9 500 1 0
"100-4-1" 4 3 "TEST" 19 3 4 0 0 161263 2 460 1 0 456 1 0
"100-4-1" 4 3 "TEST" 20 3 2 0 1 162612 2 679 1 9 699 1 0
"100-4-1" 4 3 "TEST" 21 3 3 1 0 164221 1 565 1 0 583 1 0
"100-4-1" 4 3 "TEST" 22 3 4 0 0 165835 2 619 1 0 633 1 0
"100-4-1" 4 3 "TEST" 23 3 1 1 1 167444 1 487 1 9 495 1 0
"100-4-1" 4 3 "TEST" 24 3 2 0 1 169212 2 778 1 9 811 1 0
"100-4-1" 4 3 "TEST" 25 3 3 1 0 171005 1 473 1 0 477 1 0
"100-4-2" 4 1 "PRACTICE" -25 1 2 0 1 7295 2 459 1 NA 0 0 0
"100-4-2" 4 1 "PRACTICE" -24 1 3 1 0 8920 1 440 1 NA 0 0 0
"100-4-2" 4 1 "PRACTICE" -23 1 1 1 1 10396 1 484 1 NA 0 0 0
"100-4-2" 4 1 "PRACTICE" -22 1 4 0 0 12162 2 504 1 NA 0 0 0
"100-4-2" 4 1 "PRACTICE" -21 1 3 1 0 13507 1 464 1 NA 0 0 0
"100-4-2" 4 1 "PRACTICE" -20 1 4 0 0 14856 2 493 1 NA 0 0 0
"100-4-2" 4 1 "PRACTICE" -19 1 2 0 1 16344 2 479 1 NA 0 0 0
"100-4-2" 4 1 "PRACTICE" -18 1 1 1 1 17848 1 447 1 NA 0 0 0
"100-4-2" 4 1 "TEST" 1 1 1 1 1 19572 1 384 1 NA 0 0 0
"100-4-2" 4 1 "TEST" 2 1 2 0 1 20917 2 423 1 NA 0 0 0
"100-4-2" 4 1 "TEST" 3 1 3 1 0 22370 1 350 1 NA 0 0 0
"100-4-2" 4 1 "TEST" 4 1 4 0 0 23705 2 394 1 NA 0 0 0
"100-4-2" 4 1 "TEST" 5 1 1 1 1 25402 1 364 1 NA 0 0 0
"100-4-2" 4 1 "TEST" 6 1 2 0 1 26723 2 399 1 NA 0 0 0
"100-4-2" 4 1 "TEST" 7 1 3 1 0 28427 1 328 1 NA 0 0 0
"100-4-2" 4 1 "TEST" 8 1 4 0 0 29947 2 430 1 NA 0 0 0
"100-4-2" 4 1 "TEST" 9 1 1 1 1 31218 1 394 1 NA 0 0 0
"100-4-2" 4 1 "TEST" 10 1 3 1 0 32494 1 636 1 NA 0 0 0
"100-4-2" 4 1 "TEST" 11 1 4 0 0 33980 2 439 1 NA 0 0 0
"100-4-2" 4 1 "TEST" 12 1 2 0 1 35295 2 510 1 NA 0 0 0
"100-4-2" 4 1 "TEST" 13 1 3 1 0 37033 1 375 1 NA 0 0 0
"100-4-2" 4 1 "TEST" 14 1 2 0 1 38323 2 477 1 NA 0 0 0
"100-4-2" 4 1 "TEST" 15 1 1 1 1 40048 1 344 1 NA 0 0 0
"100-4-2" 4 1 "TEST" 16 1 4 0 0 41336 2 436 1 NA 0 0 0
"100-4-2" 4 1 "TEST" 17 1 2 0 1 43095 2 476 1 NA 0 0 0
"100-4-2" 4 1 "TEST" 18 1 3 1 0 44479 1 450 1 NA 0 0 0
"100-4-2" 4 1 "TEST" 19 1 4 0 0 45837 2 430 1 NA 0 0 0
"100-4-2" 4 1 "TEST" 20 1 1 1 1 47471 1 350 1 NA 0 0 0
"100-4-2" 4 1 "TEST" 21 1 4 0 0 48778 2 415 1 NA 0 0 0
"100-4-2" 4 1 "TEST" 22 1 2 0 1 50070 2 492 1 NA 0 0 0
"100-4-2" 4 1 "TEST" 23 1 1 1 1 51530 1 357 1 NA 0 0 0
"100-4-2" 4 1 "TEST" 24 1 3 1 0 53207 1 428 1 NA 0 0 0
"100-4-2" 4 1 "TEST" 25 1 2 0 1 54742 2 452 1 NA 0 0 0
"100-4-2" 4 2 "PRACTICE" -25 2 4 0 0 60094 NA 0 0 0 541 1 0
"100-4-2" 4 2 "PRACTICE" -24 2 2 0 1 61620 NA 0 0 9 444 1 0
"100-4-2" 4 2 "PRACTICE" -23 2 1 1 1 63078 NA 0 0 9 407 1 0
"100-4-2" 4 2 "PRACTICE" -22 2 3 1 0 64669 NA 0 0 0 332 1 0
"100-4-2" 4 2 "PRACTICE" -21 2 1 1 1 66026 NA 0 0 9 368 1 0
"100-4-2" 4 2 "PRACTICE" -20 2 4 0 0 67675 NA 0 0 0 350 1 0
"100-4-2" 4 2 "PRACTICE" -19 2 2 0 1 68930 NA 0 0 9 434 1 0
"100-4-2" 4 2 "PRACTICE" -18 2 3 1 0 70336 NA 0 0 0 366 1 0
"100-4-2" 4 2 "TEST" 1 2 4 0 0 71549 NA 0 0 0 386 1 0
"100-4-2" 4 2 "TEST" 2 2 2 0 1 72997 NA 0 0 9 366 1 0
"100-4-2" 4 2 "TEST" 3 2 3 1 0 74327 NA 0 0 0 357 1 0
"100-4-2" 4 2 "TEST" 4 2 1 1 1 75857 NA 0 0 9 416 1 0
"100-4-2" 4 2 "TEST" 5 2 4 0 0 77171 NA 0 0 0 347 1 0
"100-4-2" 4 2 "TEST" 6 2 3 1 0 78635 NA 0 0 0 340 1 0
"100-4-2" 4 2 "TEST" 7 2 1 1 1 80105 NA 0 0 9 417 1 0
"100-4-2" 4 2 "TEST" 8 2 2 0 1 81832 NA 0 0 9 452 1 0
"100-4-2" 4 2 "TEST" 9 2 3 1 0 83149 NA 0 0 0 411 1 0
"100-4-2" 4 2 "TEST" 10 2 1 1 1 84463 NA 0 0 9 389 1 0
"100-4-2" 4 2 "TEST" 11 2 4 0 0 86152 NA 0 0 0 317 1 0
"100-4-2" 4 2 "TEST" 12 2 2 0 1 87528 NA 0 0 9 384 1 0
"100-4-2" 4 2 "TEST" 13 2 3 1 0 89156 NA 0 0 0 341 1 0
"100-4-2" 4 2 "TEST" 14 2 4 0 0 90622 NA 0 0 0 337 1 0
"100-4-2" 4 2 "TEST" 15 2 1 1 1 91887 NA 0 0 9 414 1 0
"100-4-2" 4 2 "TEST" 16 2 2 0 1 93459 NA 0 0 9 454 1 0
"100-4-2" 4 2 "TEST" 17 2 1 1 1 94780 NA 0 0 9 432 1 0
"100-4-2" 4 2 "TEST" 18 2 4 0 0 96052 NA 0 0 0 332 1 0
"100-4-2" 4 2 "TEST" 19 2 3 1 0 97389 NA 0 0 0 371 1 0
"100-4-2" 4 2 "TEST" 20 2 2 0 1 98659 NA 0 0 9 394 1 0
"100-4-2" 4 2 "TEST" 21 2 3 1 0 99887 NA 0 0 0 345 1 0
"100-4-2" 4 2 "TEST" 22 2 4 0 0 101352 NA 0 0 0 334 1 0
"100-4-2" 4 2 "TEST" 23 2 1 1 1 102567 NA 0 0 9 436 1 0
"100-4-2" 4 2 "TEST" 24 2 2 0 1 104257 NA 0 0 9 512 1 0
"100-4-2" 4 2 "TEST" 25 2 3 1 0 105631 NA 0 0 0 354 1 0
"100-4-2" 4 3 "PRACTICE" -25 3 1 1 1 111658 1 550 1 9 576 1 0
"100-4-2" 4 3 "PRACTICE" -24 3 2 0 1 113419 2 588 1 9 596 1 0
"100-4-2" 4 3 "PRACTICE" -23 3 3 1 0 115255 1 446 1 0 464 1 0
"100-4-2" 4 3 "PRACTICE" -22 3 4 0 0 116890 2 434 1 0 437 1 0
"100-4-2" 4 3 "PRACTICE" -21 3 4 0 0 118421 2 459 1 0 455 1 0
"100-4-2" 4 3 "PRACTICE" -20 3 2 0 1 119785 2 518 1 9 522 1 0
"100-4-2" 4 3 "PRACTICE" -19 3 1 1 1 121542 1 493 1 9 507 1 0
"100-4-2" 4 3 "PRACTICE" -18 3 3 1 0 123309 1 473 1 0 476 1 0
"100-4-2" 4 3 "TEST" 1 3 2 0 1 124809 2 521 1 9 525 1 0
"100-4-2" 4 3 "TEST" 2 3 4 0 0 126624 2 456 1 0 470 1 0
"100-4-2" 4 3 "TEST" 3 3 1 1 1 128034 1 452 1 9 470 1 0
"100-4-2" 4 3 "TEST" 4 3 3 1 0 129536 1 474 1 0 478 1 0
"100-4-2" 4 3 "TEST" 5 3 4 0 0 131115 2 536 1 0 532 1 0
"100-4-2" 4 3 "TEST" 6 3 3 1 0 132806 1 478 1 0 502 1 0
"100-4-2" 4 3 "TEST" 7 3 1 1 1 134461 1 502 1 9 525 1 0
"100-4-2" 4 3 "TEST" 8 3 2 0 1 136169 2 568 1 9 588 1 0
"100-4-2" 4 3 "TEST" 9 3 3 1 0 138063 1 518 1 0 528 1 0
"100-4-2" 4 3 "TEST" 10 3 4 0 0 139801 2 472 1 0 482 1 0
"100-4-2" 4 3 "TEST" 11 3 2 0 1 141389 2 603 1 9 621 1 0
"100-4-2" 4 3 "TEST" 12 3 1 1 1 143113 1 430 1 9 461 1 0
"100-4-2" 4 3 "TEST" 13 3 4 0 0 144880 2 409 1 0 406 1 0
"100-4-2" 4 3 "TEST" 14 3 2 0 1 146461 2 575 1 9 589 1 0
"100-4-2" 4 3 "TEST" 15 3 3 1 0 148279 1 471 1 0 487 1 0
"100-4-2" 4 3 "TEST" 16 3 1 1 1 149806 1 454 1 9 466 1 0
"100-4-2" 4 3 "TEST" 17 3 3 1 0 151289 1 432 1 0 442 1 0
"100-4-2" 4 3 "TEST" 18 3 2 0 1 152634 2 482 1 9 486 1 0
"100-4-2" 4 3 "TEST" 19 3 4 0 0 154405 2 472 1 0 485 1 0
"100-4-2" 4 3 "TEST" 20 3 1 1 1 155818 1 473 1 9 509 1 0
"100-4-2" 4 3 "TEST" 21 3 3 1 0 157184 1 560 1 0 570 1 0
"100-4-2" 4 3 "TEST" 22 3 4 0 0 158814 2 455 1 0 436 1 0
"100-4-2" 4 3 "TEST" 23 3 2 0 1 160246 2 420 1 9 441 1 0
"100-4-2" 4 3 "TEST" 24 3 1 1 1 161526 1 539 1 9 585 1 0
"100-4-2" 4 3 "TEST" 25 3 2 0 1 163252 2 574 1 9 592 1 0
"100-4-3" 4 1 "PRACTICE" -25 1 1 1 1 7554 1 474 1 NA 0 0 0
"100-4-3" 4 1 "PRACTICE" -24 1 3 1 0 9292 1 498 1 NA 0 0 0
"100-4-3" 4 1 "PRACTICE" -23 1 4 0 0 11120 2 427 1 NA 0 0 0
"100-4-3" 4 1 "PRACTICE" -22 1 2 0 1 12404 2 503 1 NA 0 0 0
"100-4-3" 4 1 "PRACTICE" -21 1 2 0 1 14174 2 480 1 NA 0 0 0
"100-4-3" 4 1 "PRACTICE" -20 1 4 0 0 15906 2 453 1 NA 0 0 0
"100-4-3" 4 1 "PRACTICE" -19 1 3 1 0 17635 1 362 1 NA 0 0 0
"100-4-3" 4 1 "PRACTICE" -18 1 1 1 1 19240 1 411 1 NA 0 0 0
"100-4-3" 4 1 "TEST" 1 1 3 1 0 20750 1 406 1 NA 0 0 0
"100-4-3" 4 1 "TEST" 2 1 1 1 1 22038 1 408 1 NA 0 0 0
"100-4-3" 4 1 "TEST" 3 1 4 0 0 23336 2 410 1 NA 0 0 0
"100-4-3" 4 1 "TEST" 4 1 2 0 1 24647 2 444 1 NA 0 0 0
"100-4-3" 4 1 "TEST" 5 1 3 1 0 26300 1 392 1 NA 0 0 0
"100-4-3" 4 1 "TEST" 6 1 1 1 1 27649 1 368 1 NA 0 0 0
"100-4-3" 4 1 "TEST" 7 1 2 0 1 28855 2 407 1 NA 0 0 0
"100-4-3" 4 1 "TEST" 8 1 4 0 0 30488 2 427 1 NA 0 0 0
"100-4-3" 4 1 "TEST" 9 1 3 1 0 31973 1 358 1 NA 0 0 0
"100-4-3" 4 1 "TEST" 10 1 1 1 1 33399 1 404 1 NA 0 0 0
"100-4-3" 4 1 "TEST" 11 1 2 0 1 35101 2 408 1 NA 0 0 0
"100-4-3" 4 1 "TEST" 12 1 4 0 0 36713 2 408 1 NA 0 0 0
"100-4-3" 4 1 "TEST" 13 1 2 0 1 38445 2 388 1 NA 0 0 0
"100-4-3" 4 1 "TEST" 14 1 3 1 0 39747 1 382 1 NA 0 0 0
"100-4-3" 4 1 "TEST" 15 1 1 1 1 41301 1 314 1 NA 0 0 0
"100-4-3" 4 1 "TEST" 16 1 4 0 0 42466 2 365 1 NA 0 0 0
"100-4-3" 4 1 "TEST" 17 1 1 1 1 43823 1 308 1 NA 0 0 0
"100-4-3" 4 1 "TEST" 18 1 4 0 0 45266 2 350 1 NA 0 0 0
"100-4-3" 4 1 "TEST" 19 1 3 1 0 46572 1 339 1 NA 0 0 0
"100-4-3" 4 1 "TEST" 20 1 2 0 1 48128 2 377 1 NA 0 0 0
"100-4-3" 4 1 "TEST" 21 1 1 1 1 49696 1 383 1 NA 0 0 0
"100-4-3" 4 1 "TEST" 22 1 3 1 0 50995 1 522 1 NA 0 0 0
"100-4-3" 4 1 "TEST" 23 1 4 0 0 52733 2 384 1 NA 0 0 0
"100-4-3" 4 1 "TEST" 24 1 2 0 1 54012 2 422 1 NA 0 0 0
"100-4-3" 4 1 "TEST" 25 1 1 1 1 55296 1 350 1 NA 0 0 0
"100-4-3" 4 2 "PRACTICE" -25 2 2 0 1 61096 NA 0 0 9 476 1 0
"100-4-3" 4 2 "PRACTICE" -24 2 4 0 0 62420 NA 0 0 0 397 1 0
"100-4-3" 4 2 "PRACTICE" -23 2 3 1 0 64056 NA 0 0 0 372 1 0
"100-4-3" 4 2 "PRACTICE" -22 2 1 1 1 65307 NA 0 0 9 402 1 0
"100-4-3" 4 2 "PRACTICE" -21 2 4 0 0 66805 NA 0 0 0 334 1 0
"100-4-3" 4 2 "PRACTICE" -20 2 1 1 1 68261 NA 0 0 9 466 1 0
"100-4-3" 4 2 "PRACTICE" -19 2 2 0 1 69744 NA 0 0 9 401 1 0
"100-4-3" 4 2 "PRACTICE" -18 2 3 1 0 71256 NA 0 0 0 396 1 0
"100-4-3" 4 2 "TEST" 1 2 1 1 1 72778 NA 0 0 9 432 1 0
"100-4-3" 4 2 "TEST" 2 2 2 0 1 74217 NA 0 0 9 421 1 0
"100-4-3" 4 2 "TEST" 3 2 4 0 0 75544 NA 0 0 0 357 1 0
"100-4-3" 4 2 "TEST" 4 2 3 1 0 76783 NA 0 0 0 356 1 0
"100-4-3" 4 2 "TEST" 5 2 2 0 1 77990 NA 0 0 9 401 1 0
"100-4-3" 4 2 "TEST" 6 2 1 1 1 79616 NA 0 0 9 484 1 0
"100-4-3" 4 2 "TEST" 7 2 4 0 0 81180 NA 0 0 0 384 1 0
"100-4-3" 4 2 "TEST" 8 2 3 1 0 82469 NA 0 0 0 356 1 0
"100-4-3" 4 2 "TEST" 9 2 2 0 1 84019 NA 0 0 9 426 1 0
"100-4-3" 4 2 "TEST" 10 2 3 1 0 85505 NA 0 0 0 331 1 0
"100-4-3" 4 2 "TEST" 11 2 4 0 0 87069 NA 0 0 0 386 1 0
"100-4-3" 4 2 "TEST" 12 2 1 1 1 88605 NA 0 0 9 442 1 0
"100-4-3" 4 2 "TEST" 13 2 4 0 0 90193 NA 0 0 0 309 1 0
"100-4-3" 4 2 "TEST" 14 2 2 0 1 91532 NA 0 0 9 379 1 0
"100-4-3" 4 2 "TEST" 15 2 3 1 0 93051 NA 0 0 0 394 1 0
"100-4-3" 4 2 "TEST" 16 2 1 1 1 94594 NA 0 0 9 329 1 0
"100-4-3" 4 2 "TEST" 17 2 4 0 0 95913 NA 0 0 0 363 1 0
"100-4-3" 4 2 "TEST" 18 2 3 1 0 97253 NA 0 0 0 413 1 0
"100-4-3" 4 2 "TEST" 19 2 2 0 1 98585 NA 0 0 9 381 1 0
"100-4-3" 4 2 "TEST" 20 2 1 1 1 99829 NA 0 0 9 404 1 0
"100-4-3" 4 2 "TEST" 21 2 2 0 1 101393 NA 0 0 9 416 1 0
"100-4-3" 4 2 "TEST" 22 2 4 0 0 102641 NA 0 0 0 352 1 0
"100-4-3" 4 2 "TEST" 23 2 3 1 0 104296 NA 0 0 0 346 1 0
"100-4-3" 4 2 "TEST" 24 2 1 1 1 105779 NA 0 0 9 371 1 0
"100-4-3" 4 2 "TEST" 25 2 4 0 0 107191 NA 0 0 0 295 1 0
"100-4-3" 4 3 "PRACTICE" -25 3 3 1 0 112246 1 479 1 0 483 1 0
"100-4-3" 4 3 "PRACTICE" -24 3 2 0 1 113744 2 509 1 9 514 1 0
"100-4-3" 4 3 "PRACTICE" -23 3 1 1 1 115480 1 610 1 9 640 1 0
"100-4-3" 4 3 "PRACTICE" -22 3 4 0 0 116992 2 451 1 0 447 1 0
"100-4-3" 4 3 "PRACTICE" -21 3 3 1 0 118538 1 493 1 0 497 1 0
"100-4-3" 4 3 "PRACTICE" -20 3 4 0 0 120225 2 393 1 0 396 1 0
"100-4-3" 4 3 "PRACTICE" -19 3 2 0 1 121682 2 586 1 9 582 1 0
"100-4-3" 4 3 "PRACTICE" -18 3 1 1 1 123120 1 480 1 9 492 1 0
"100-4-3" 4 3 "TEST" 1 3 2 0 1 124566 2 471 1 9 486 1 0
"100-4-3" 4 3 "TEST" 2 3 1 1 1 126030 1 446 1 9 468 1 0
"100-4-3" 4 3 "TEST" 3 3 3 1 0 127363 1 498 1 0 493 1 0
"100-4-3" 4 3 "TEST" 4 3 4 0 0 129035 2 492 1 0 472 1 0
"100-4-3" 4 3 "TEST" 5 3 2 0 1 130649 2 520 1 9 525 1 0
"100-4-3" 4 3 "TEST" 6 3 1 1 1 132280 1 539 1 9 584 1 0
"100-4-3" 4 3 "TEST" 7 3 3 1 0 133978 1 535 1 0 560 1 0
"100-4-3" 4 3 "TEST" 8 3 4 0 0 135664 2 494 1 0 498 1 0
"100-4-3" 4 3 "TEST" 9 3 3 1 0 137432 1 512 1 0 536 1 0
"100-4-3" 4 3 "TEST" 10 3 2 0 1 139096 2 438 1 9 502 1 0
"100-4-3" 4 3 "TEST" 11 3 1 1 1 140612 1 467 1 9 497 1 0
"100-4-3" 4 3 "TEST" 12 3 4 0 0 142406 2 536 1 0 526 1 0
"100-4-3" 4 3 "TEST" 13 3 1 1 1 143859 1 456 1 9 471 1 0
"100-4-3" 4 3 "TEST" 14 3 4 0 0 145331 2 416 1 0 398 1 0
"100-4-3" 4 3 "TEST" 15 3 3 1 0 146805 1 480 1 0 484 1 0
"100-4-3" 4 3 "TEST" 16 3 2 0 1 148610 2 477 1 9 473 1 0
"100-4-3" 4 3 "TEST" 17 3 4 0 0 150050 2 468 1 0 447 1 0
"100-4-3" 4 3 "TEST" 18 3 1 1 1 151406 1 442 1 9 445 1 0
"100-4-3" 4 3 "TEST" 19 3 3 1 0 152799 1 450 1 0 464 1 0
"100-4-3" 4 3 "TEST" 20 3 2 0 1 154559 2 518 1 9 568 1 0
"100-4-3" 4 3 "TEST" 21 3 4 0 0 156332 2 541 1 0 535 1 0
"100-4-3" 4 3 "TEST" 22 3 3 1 0 158034 1 445 1 0 451 1 0
"100-4-3" 4 3 "TEST" 23 3 2 0 1 159346 2 486 1 9 500 1 0
"100-4-3" 4 3 "TEST" 24 3 1 1 1 160874 1 535 1 9 539 1 0
"100-4-3" 4 3 "TEST" 25 3 4 0 0 162510 2 414 1 0 409 1 0
"100-4-4" 4 1 "PRACTICE" -25 1 4 0 0 8066 2 440 1 NA 0 0 0
"100-4-4" 4 1 "PRACTICE" -24 1 2 0 1 9618 2 439 1 NA 0 0 0
"100-4-4" 4 1 "PRACTICE" -23 1 1 1 1 11261 1 388 1 NA 0 0 0
"100-4-4" 4 1 "PRACTICE" -22 1 3 1 0 12759 1 438 1 NA 0 0 0
"100-4-4" 4 1 "PRACTICE" -21 1 2 0 1 14469 2 428 1 NA 0 0 0
"100-4-4" 4 1 "PRACTICE" -20 1 1 1 1 15964 1 404 1 NA 0 0 0
"100-4-4" 4 1 "PRACTICE" -19 1 3 1 0 17639 1 363 1 NA 0 0 0
"100-4-4" 4 1 "PRACTICE" -18 1 4 0 0 19318 2 328 1 NA 0 0 0
"100-4-4" 4 1 "TEST" 1 1 2 0 1 20845 2 394 1 NA 0 0 0
"100-4-4" 4 1 "TEST" 2 1 1 1 1 22493 1 321 1 NA 0 0 0
"100-4-4" 4 1 "TEST" 3 1 3 1 0 23800 1 402 1 NA 0 0 0
"100-4-4" 4 1 "TEST" 4 1 4 0 0 25164 2 344 1 NA 0 0 0
"100-4-4" 4 1 "TEST" 5 1 2 0 1 26733 2 401 1 NA 0 0 0
"100-4-4" 4 1 "TEST" 6 1 1 1 1 28026 1 462 1 NA 0 0 0
"100-4-4" 4 1 "TEST" 7 1 3 1 0 29716 1 390 1 NA 0 0 0
"100-4-4" 4 1 "TEST" 8 1 4 0 0 31022 2 475 1 NA 0 0 0
"100-4-4" 4 1 "TEST" 9 1 3 1 0 32398 1 356 1 NA 0 0 0
"100-4-4" 4 1 "TEST" 10 1 1 1 1 33749 1 304 1 NA 0 0 0
"100-4-4" 4 1 "TEST" 11 1 2 0 1 35197 2 298 1 NA 0 0 0
"100-4-4" 4 1 "TEST" 12 1 4 0 0 36409 2 358 1 NA 0 0 0
"100-4-4" 4 1 "TEST" 13 1 1 1 1 38014 1 256 1 NA 0 0 0
"100-4-4" 4 1 "TEST" 14 1 3 1 0 39447 1 394 1 NA 0 0 0
"100-4-4" 4 1 "TEST" 15 1 4 0 0 41131 2 361 1 NA 0 0 0
"100-4-4" 4 1 "TEST" 16 1 2 0 1 42442 2 435 1 NA 0 0 0
"100-4-4" 4 1 "TEST" 17 1 3 1 0 43944 1 355 1 NA 0 0 0
"100-4-4" 4 1 "TEST" 18 1 2 0 1 45174 2 346 1 NA 0 0 0
"100-4-4" 4 1 "TEST" 19 1 1 1 1 46455 1 371 1 NA 0 0 0
"100-4-4" 4 1 "TEST" 20 1 4 0 0 47984 2 317 1 NA 0 0 0
"100-4-4" 4 1 "TEST" 21 1 3 1 0 49184 1 390 1 NA 0 0 0
"100-4-4" 4 1 "TEST" 22 1 1 1 1 50539 1 328 1 NA 0 0 0
"100-4-4" 4 1 "TEST" 23 1 2 0 1 51739 2 421 1 NA 0 0 0
"100-4-4" 4 1 "TEST" 24 1 4 0 0 53360 2 400 1 NA 0 0 0
"100-4-4" 4 1 "TEST" 25 1 1 1 1 54623 1 462 1 NA 0 0 0
"100-4-4" 4 2 "PRACTICE" -25 2 1 1 1 60723 NA 0 0 9 441 1 0
"100-4-4" 4 2 "PRACTICE" -24 2 3 1 0 62260 NA 0 0 0 351 1 0
"100-4-4" 4 2 "PRACTICE" -23 2 4 0 0 63593 NA 0 0 0 414 1 0
"100-4-4" 4 2 "PRACTICE" -22 2 2 0 1 65042 NA 0 0 9 405 1 0
"100-4-4" 4 2 "PRACTICE" -21 2 1 1 1 66649 NA 0 0 9 430 1 0
"100-4-4" 4 2 "PRACTICE" -20 2 3 1 0 68205 NA 0 0 0 327 1 0
"100-4-4" 4 2 "PRACTICE" -19 2 4 0 0 69636 NA 0 0 0 382 1 0
"100-4-4" 4 2 "PRACTICE" -18 2 2 0 1 71127 NA 0 0 9 381 1 0
"100-4-4" 4 2 "TEST" 1 2 3 1 0 72476 NA 0 0 0 382 1 0
"100-4-4" 4 2 "TEST" 2 2 4 0 0 73744 NA 0 0 0 398 1 0
"100-4-4" 4 2 "TEST" 3 2 2 0 1 75173 NA 0 0 9 371 1 0
"100-4-4" 4 2 "TEST" 4 2 1 1 1 76567 NA 0 0 9 363 1 0
"100-4-4" 4 2 "TEST" 5 2 4 0 0 78103 NA 0 0 0 303 1 0
"100-4-4" 4 2 "TEST" 6 2 1 1 1 79271 NA 0 0 9 390 1 0
"100-4-4" 4 2 "TEST" 7 2 2 0 1 80724 NA 0 0 0 275 0 0
"100-4-4" 4 2 "TEST" 8 2 3 1 0 82398 NA 0 0 0 384 1 0
"100-4-4" 4 2 "TEST" 9 2 4 0 0 83919 NA 0 0 0 399 1 0
"100-4-4" 4 2 "TEST" 10 2 3 1 0 85578 NA 0 0 0 349 1 0
"100-4-4" 4 2 "TEST" 11 2 1 1 1 87224 NA 0 0 9 368 1 0
"100-4-4" 4 2 "TEST" 12 2 2 0 1 88614 NA 0 0 9 386 1 0
"100-4-4" 4 2 "TEST" 13 2 1 1 1 89960 NA 0 0 9 350 1 0
"100-4-4" 4 2 "TEST" 14 2 4 0 0 91511 NA 0 0 0 381 1 0
"100-4-4" 4 2 "TEST" 15 2 3 1 0 92761 NA 0 0 0 448 1 0
"100-4-4" 4 2 "TEST" 16 2 2 0 1 94461 NA 0 0 9 428 1 0
"100-4-4" 4 2 "TEST" 17 2 3 1 0 95942 NA 0 0 0 369 1 0
"100-4-4" 4 2 "TEST" 18 2 1 1 1 97488 NA 0 0 9 388 1 0
"100-4-4" 4 2 "TEST" 19 2 4 0 0 98760 NA 0 0 0 460 1 0
"100-4-4" 4 2 "TEST" 20 2 2 0 1 100453 NA 0 0 9 465 1 0
"100-4-4" 4 2 "TEST" 21 2 3 1 0 101801 NA 0 0 0 481 1 0
"100-4-4" 4 2 "TEST" 22 2 4 0 0 103135 NA 0 0 0 518 1 0
"100-4-4" 4 2 "TEST" 23 2 2 0 1 104547 NA 0 0 9 389 1 0
"100-4-4" 4 2 "TEST" 24 2 1 1 1 105957 NA 0 0 9 368 1 0
"100-4-4" 4 2 "TEST" 25 2 3 1 0 107204 NA 0 0 0 411 1 0
"100-4-4" 4 3 "PRACTICE" -25 3 3 1 0 112272 1 491 1 0 497 1 0
"100-4-4" 4 3 "PRACTICE" -24 3 1 1 1 113975 1 512 1 9 518 1 0
"100-4-4" 4 3 "PRACTICE" -23 3 4 0 0 115785 2 387 1 0 395 1 0
"100-4-4" 4 3 "PRACTICE" -22 3 2 0 1 117073 2 543 1 9 538 1 0
"100-4-4" 4 3 "PRACTICE" -21 3 3 1 0 118723 1 417 1 0 421 1 0
"100-4-4" 4 3 "PRACTICE" -20 3 4 0 0 120105 2 472 1 0 476 1 0
"100-4-4" 4 3 "PRACTICE" -19 3 1 1 1 121517 1 483 1 9 493 1 0
"100-4-4" 4 3 "PRACTICE" -18 3 2 0 1 123025 2 573 1 9 569 1 0
"100-4-4" 4 3 "TEST" 1 3 2 0 1 124833 2 446 1 9 450 1 0
"100-4-4" 4 3 "TEST" 2 3 1 1 1 126351 1 488 1 9 483 1 0
"100-4-4" 4 3 "TEST" 3 3 4 0 0 128105 2 437 1 0 451 1 0
"100-4-4" 4 3 "TEST" 4 3 3 1 0 129878 1 574 1 0 582 1 0
"100-4-4" 4 3 "TEST" 5 3 1 1 1 131733 1 454 1 9 461 1 0
"100-4-4" 4 3 "TEST" 6 3 2 0 1 133334 2 578 1 9 586 1 0
"100-4-4" 4 3 "TEST" 7 3 4 0 0 134774 2 490 1 0 484 1 0
"100-4-4" 4 3 "TEST" 8 3 3 1 0 136336 1 523 1 0 514 1 0
"100-4-4" 4 3 "TEST" 9 3 1 1 1 138018 1 446 1 9 478 1 0
"100-4-4" 4 3 "TEST" 10 3 3 1 0 139427 1 424 1 0 414 1 0
"100-4-4" 4 3 "TEST" 11 3 4 0 0 140850 2 552 1 0 424 1 0
"100-4-4" 4 3 "TEST" 12 3 2 0 1 142383 2 644 1 9 654 1 0
"100-4-4" 4 3 "TEST" 13 3 3 1 0 144340 1 516 1 0 529 1 0
"100-4-4" 4 3 "TEST" 14 3 2 0 1 145757 2 455 1 9 449 1 0
"100-4-4" 4 3 "TEST" 15 3 4 0 0 147345 2 456 1 0 460 1 0
"100-4-4" 4 3 "TEST" 16 3 1 1 1 148955 1 471 1 9 489 1 0
"100-4-4" 4 3 "TEST" 17 3 2 0 1 150691 2 520 1 9 532 1 0
"100-4-4" 4 3 "TEST" 18 3 3 1 0 152144 1 453 1 0 462 1 0
"100-4-4" 4 3 "TEST" 19 3 4 0 0 153644 2 480 1 0 476 1 0
"100-4-4" 4 3 "TEST" 20 3 1 1 1 155067 1 420 1 9 431 1 0
"100-4-4" 4 3 "TEST" 21 3 4 0 0 156767 2 416 1 0 419 1 0
"100-4-4" 4 3 "TEST" 22 3 2 0 1 158218 2 429 1 9 439 1 0
"100-4-4" 4 3 "TEST" 23 3 3 1 0 159766 1 415 1 0 419 1 0
"100-4-4" 4 3 "TEST" 24 3 1 1 1 161456 1 474 1 9 483 1 0
"100-4-4" 4 3 "TEST" 25 3 2 0 1 162859 2 782 1 9 804 1 0
"101-1-1" 4 1 "PRACTICE" -25 1 1 1 1 51494 1 601 1 NA 0 0 0
"101-1-1" 4 1 "PRACTICE" -24 1 3 1 0 53343 1 466 1 NA 0 0 0
"101-1-1" 4 1 "PRACTICE" -23 1 2 0 1 55046 2 462 1 NA 0 0 0
"101-1-1" 4 1 "PRACTICE" -22 1 4 0 0 56551 2 405 1 NA 0 0 0
"101-1-1" 4 1 "PRACTICE" -21 1 4 0 0 57940 2 398 1 NA 0 0 0
"101-1-1" 4 1 "PRACTICE" -20 1 1 1 1 59198 1 405 1 NA 0 0 0
"101-1-1" 4 1 "PRACTICE" -19 1 2 0 1 60667 2 414 1 NA 0 0 0
"101-1-1" 4 1 "PRACTICE" -18 1 3 1 0 62006 1 446 1 NA 0 0 0
"101-1-1" 4 1 "TEST" 1 1 1 1 1 63661 1 351 1 NA 0 0 0
"101-1-1" 4 1 "TEST" 2 1 3 1 0 65133 1 349 1 NA 0 0 0
"101-1-1" 4 1 "TEST" 3 1 4 0 0 66747 2 365 1 NA 0 0 0
"101-1-1" 4 1 "TEST" 4 1 2 0 1 68094 2 412 1 NA 0 0 0
"101-1-1" 4 1 "TEST" 5 1 4 0 0 69750 2 409 1 NA 0 0 0
"101-1-1" 4 1 "TEST" 6 1 2 0 1 71023 2 406 1 NA 0 0 0
"101-1-1" 4 1 "TEST" 7 1 3 1 0 72509 1 385 1 NA 0 0 0
"101-1-1" 4 1 "TEST" 8 1 1 1 1 73872 1 333 1 NA 0 0 0
"101-1-1" 4 1 "TEST" 9 1 3 1 0 75232 1 359 1 NA 0 0 0
"101-1-1" 4 1 "TEST" 10 1 4 0 0 76834 2 330 1 NA 0 0 0
"101-1-1" 4 1 "TEST" 11 1 1 1 1 78096 1 349 1 NA 0 0 0
"101-1-1" 4 1 "TEST" 12 1 2 0 1 79314 2 372 1 NA 0 0 0
"101-1-1" 4 1 "TEST" 13 1 3 1 0 80561 1 319 1 NA 0 0 0
"101-1-1" 4 1 "TEST" 14 1 1 1 1 82042 1 360 1 NA 0 0 0
"101-1-1" 4 1 "TEST" 15 1 4 0 0 83725 2 352 1 NA 0 0 0
"101-1-1" 4 1 "TEST" 16 1 2 0 1 85176 2 416 1 NA 0 0 0
"101-1-1" 4 1 "TEST" 17 1 1 1 1 86848 1 306 1 NA 0 0 0
"101-1-1" 4 1 "TEST" 18 1 4 0 0 88108 2 335 1 NA 0 0 0
"101-1-1" 4 1 "TEST" 19 1 3 1 0 89736 1 273 1 NA 0 0 0
"101-1-1" 4 1 "TEST" 20 1 2 0 1 90880 2 348 1 NA 0 0 0
"101-1-1" 4 1 "TEST" 21 1 4 0 0 92121 2 366 1 NA 0 0 0
"101-1-1" 4 1 "TEST" 22 1 3 1 0 93666 1 339 1 NA 0 0 0
"101-1-1" 4 1 "TEST" 23 1 1 1 1 95132 1 388 1 NA 0 0 0
"101-1-1" 4 1 "TEST" 24 1 2 0 1 96533 2 426 1 NA 0 0 0
"101-1-1" 4 1 "TEST" 25 1 1 1 1 97928 1 338 1 NA 0 0 0
"101-1-1" 4 2 "PRACTICE" -25 2 3 1 0 116079 NA 0 0 0 492 1 0
"101-1-1" 4 2 "PRACTICE" -24 2 4 0 0 117401 NA 0 0 0 362 1 0
"101-1-1" 4 2 "PRACTICE" -23 2 1 1 1 119076 NA 0 0 9 360 1 0
"101-1-1" 4 2 "PRACTICE" -22 2 2 0 1 120607 NA 0 0 9 416 1 0
"101-1-1" 4 2 "PRACTICE" -21 2 4 0 0 121983 NA 0 0 0 323 1 0
"101-1-1" 4 2 "PRACTICE" -20 2 3 1 0 123160 NA 0 0 0 334 1 0
"101-1-1" 4 2 "PRACTICE" -19 2 1 1 1 124604 NA 0 0 9 377 1 0
"101-1-1" 4 2 "PRACTICE" -18 2 2 0 1 126051 NA 0 0 9 356 1 0
"101-1-1" 4 2 "TEST" 1 2 3 1 0 127502 NA 0 0 0 411 1 0
"101-1-1" 4 2 "TEST" 2 2 2 0 1 129233 NA 0 0 9 468 1 0
"101-1-1" 4 2 "TEST" 3 2 1 1 1 130692 NA 0 0 9 393 1 0
"101-1-1" 4 2 "TEST" 4 2 4 0 0 132099 NA 0 0 0 351 1 0
"101-1-1" 4 2 "TEST" 5 2 2 0 1 133318 NA 0 0 0 380 0 0
"101-1-1" 4 2 "TEST" 6 2 3 1 0 135356 NA 0 0 0 456 1 0
"101-1-1" 4 2 "TEST" 7 2 1 1 1 136957 NA 0 0 9 385 1 0
"101-1-1" 4 2 "TEST" 8 2 4 0 0 138467 NA 0 0 0 464 1 0
"101-1-1" 4 2 "TEST" 9 2 1 1 1 139964 NA 0 0 9 394 1 0
"101-1-1" 4 2 "TEST" 10 2 2 0 1 141293 NA 0 0 9 378 1 0
"101-1-1" 4 2 "TEST" 11 2 3 1 0 142845 NA 0 0 0 375 1 0
"101-1-1" 4 2 "TEST" 12 2 4 0 0 144231 NA 0 0 0 360 1 0
"101-1-1" 4 2 "TEST" 13 2 3 1 0 145457 NA 0 0 0 308 1 0
"101-1-1" 4 2 "TEST" 14 2 1 1 1 146613 NA 0 0 9 460 1 0
"101-1-1" 4 2 "TEST" 15 2 2 0 1 148171 NA 0 0 9 394 1 0
"101-1-1" 4 2 "TEST" 16 2 4 0 0 149558 NA 0 0 0 538 1 0
"101-1-1" 4 2 "TEST" 17 2 2 0 1 151032 NA 0 0 9 381 1 0
"101-1-1" 4 2 "TEST" 18 2 1 1 1 152705 NA 0 0 9 400 1 0
"101-1-1" 4 2 "TEST" 19 2 4 0 0 154351 NA 0 0 0 422 1 0
"101-1-1" 4 2 "TEST" 20 2 3 1 0 156081 NA 0 0 0 362 1 0
"101-1-1" 4 2 "TEST" 21 2 2 0 1 157585 NA 0 0 9 432 1 0
"101-1-1" 4 2 "TEST" 22 2 4 0 0 158999 NA 0 0 0 450 1 0
"101-1-1" 4 2 "TEST" 23 2 1 1 1 160396 NA 0 0 9 528 1 0
"101-1-1" 4 2 "TEST" 24 2 3 1 0 162219 NA 0 0 0 349 1 0
"101-1-1" 4 2 "TEST" 25 2 1 1 1 163761 NA 0 0 9 333 1 0
"101-1-1" 4 3 "PRACTICE" -25 3 4 0 0 178976 2 624 1 0 640 1 0
"101-1-1" 4 3 "PRACTICE" -24 3 1 1 1 180769 1 587 1 9 579 1 0
"101-1-1" 4 3 "PRACTICE" -23 3 3 1 0 182683 1 677 1 0 665 1 0
"101-1-1" 4 3 "PRACTICE" -22 3 2 0 1 184673 2 563 1 9 543 1 0
"101-1-1" 4 3 "PRACTICE" -21 3 1 1 1 186270 2 471 0 9 426 1 0
"101-1-1" 4 3 "PRACTICE" -20 3 2 0 1 188234 2 754 1 9 736 1 0
"101-1-1" 4 3 "PRACTICE" -19 3 4 0 0 189995 2 804 1 0 790 1 0
"101-1-1" 4 3 "PRACTICE" -18 3 3 1 0 192098 1 1182 1 0 1200 1 0
"101-1-1" 4 3 "TEST" 1 3 1 1 1 194519 1 623 1 9 570 1 0
"101-1-1" 4 3 "TEST" 2 3 3 1 0 196040 2 918 0 0 932 1 0
"101-1-1" 4 3 "TEST" 3 3 4 0 0 198726 2 728 1 0 762 1 0
"101-1-1" 4 3 "TEST" 4 3 2 0 1 200673 2 698 1 9 704 1 0
"101-1-1" 4 3 "TEST" 5 3 4 0 0 202621 2 701 1 0 712 1 0
"101-1-1" 4 3 "TEST" 6 3 3 1 0 204525 1 697 1 0 713 1 0
"101-1-1" 4 3 "TEST" 7 3 1 1 1 206275 1 852 1 9 870 1 0
"101-1-1" 4 3 "TEST" 8 3 2 0 1 208064 2 736 1 9 740 1 0
"101-1-1" 4 3 "TEST" 9 3 1 1 1 209668 1 671 1 9 695 1 0
"101-1-1" 4 3 "TEST" 10 3 4 0 0 211414 2 566 1 0 599 1 0
"101-1-1" 4 3 "TEST" 11 3 2 0 1 213337 2 608 1 9 604 1 0
"101-1-1" 4 3 "TEST" 12 3 3 1 0 214945 1 572 1 0 668 1 0
"101-1-1" 4 3 "TEST" 13 3 4 0 0 216827 2 506 1 0 488 1 0
"101-1-1" 4 3 "TEST" 14 3 1 1 1 218211 1 622 1 9 618 1 0
"101-1-1" 4 3 "TEST" 15 3 2 0 1 220003 2 448 1 9 453 1 0
"101-1-1" 4 3 "TEST" 16 3 3 1 0 221645 1 542 1 0 560 1 0
"101-1-1" 4 3 "TEST" 17 3 4 0 0 223225 2 499 1 0 495 1 0
"101-1-1" 4 3 "TEST" 18 3 2 0 1 225005 2 533 1 9 539 1 0
"101-1-1" 4 3 "TEST" 19 3 1 1 1 226667 1 600 1 9 616 1 0
"101-1-1" 4 3 "TEST" 20 3 3 1 0 228127 1 855 1 0 861 1 0
"101-1-1" 4 3 "TEST" 21 3 4 0 0 229848 2 460 1 0 438 1 0
"101-1-1" 4 3 "TEST" 22 3 2 0 1 231150 2 454 1 9 459 1 0
"101-1-1" 4 3 "TEST" 23 3 1 1 1 232937 1 518 1 9 537 1 0
"101-1-1" 4 3 "TEST" 24 3 3 1 0 234710 1 597 1 0 603 1 0
"101-1-1" 4 3 "TEST" 25 3 2 0 1 236336 2 466 1 9 470 1 0
"101-1-2" 4 1 "PRACTICE" -25 1 1 1 1 11887 1 446 1 NA 0 0 0
"101-1-2" 4 1 "PRACTICE" -24 1 3 1 0 13518 1 396 1 NA 0 0 0
"101-1-2" 4 1 "PRACTICE" -23 1 4 0 0 14863 2 418 1 NA 0 0 0
"101-1-2" 4 1 "PRACTICE" -22 1 2 0 1 16415 2 421 1 NA 0 0 0
"101-1-2" 4 1 "PRACTICE" -21 1 2 0 1 17851 2 455 1 NA 0 0 0
"101-1-2" 4 1 "PRACTICE" -20 1 1 1 1 19553 1 378 1 NA 0 0 0
"101-1-2" 4 1 "PRACTICE" -19 1 3 1 0 21160 1 519 1 NA 0 0 0
"101-1-2" 4 1 "PRACTICE" -18 1 4 0 0 22798 2 415 1 NA 0 0 0
"101-1-2" 4 1 "TEST" 1 1 4 0 0 24229 2 416 1 NA 0 0 0
"101-1-2" 4 1 "TEST" 2 1 1 1 1 25818 1 382 1 NA 0 0 0
"101-1-2" 4 1 "TEST" 3 1 3 1 0 27441 1 383 1 NA 0 0 0
"101-1-2" 4 1 "TEST" 4 1 2 0 1 28782 2 462 1 NA 0 0 0
"101-1-2" 4 1 "TEST" 5 1 4 0 0 30449 2 378 1 NA 0 0 0
"101-1-2" 4 1 "TEST" 6 1 3 1 0 31727 1 398 1 NA 0 0 0
"101-1-2" 4 1 "TEST" 7 1 2 0 1 33451 2 416 1 NA 0 0 0
"101-1-2" 4 1 "TEST" 8 1 1 1 1 34714 1 408 1 NA 0 0 0
"101-1-2" 4 1 "TEST" 9 1 4 0 0 36308 2 336 1 NA 0 0 0
"101-1-2" 4 1 "TEST" 10 1 2 0 1 37519 2 429 1 NA 0 0 0
"101-1-2" 4 1 "TEST" 11 1 3 1 0 39105 1 397 1 NA 0 0 0
"101-1-2" 4 1 "TEST" 12 1 1 1 1 40588 1 343 1 NA 0 0 0
"101-1-2" 4 1 "TEST" 13 1 4 0 0 42187 2 381 1 NA 0 0 0
"101-1-2" 4 1 "TEST" 14 1 3 1 0 43826 1 394 1 NA 0 0 0
"101-1-2" 4 1 "TEST" 15 1 2 0 1 45521 2 624 1 NA 0 0 0
"101-1-2" 4 1 "TEST" 16 1 1 1 1 47191 1 349 1 NA 0 0 0
"101-1-2" 4 1 "TEST" 17 1 3 1 0 48477 1 428 1 NA 0 0 0
"101-1-2" 4 1 "TEST" 18 1 2 0 1 49822 2 412 1 NA 0 0 0
"101-1-2" 4 1 "TEST" 19 1 1 1 1 51366 1 385 1 NA 0 0 0
"101-1-2" 4 1 "TEST" 20 1 4 0 0 52652 2 402 1 NA 0 0 0
"101-1-2" 4 1 "TEST" 21 1 2 0 1 54045 2 423 1 NA 0 0 0
"101-1-2" 4 1 "TEST" 22 1 3 1 0 55378 1 428 1 NA 0 0 0
"101-1-2" 4 1 "TEST" 23 1 1 1 1 56991 1 332 1 NA 0 0 0
"101-1-2" 4 1 "TEST" 24 1 4 0 0 58522 2 362 1 NA 0 0 0
"101-1-2" 4 1 "TEST" 25 1 3 1 0 59967 1 384 1 NA 0 0 0
"101-1-2" 4 2 "PRACTICE" -25 2 4 0 0 65471 NA 0 0 0 398 1 0
"101-1-2" 4 2 "PRACTICE" -24 2 2 0 1 66868 NA 0 0 0 601 0 0
"101-1-2" 4 2 "PRACTICE" -23 2 1 1 1 69237 NA 0 0 9 446 1 0
"101-1-2" 4 2 "PRACTICE" -22 2 3 1 0 70807 NA 0 0 0 591 1 0
"101-1-2" 4 2 "PRACTICE" -21 2 4 0 0 72443 NA 0 0 0 404 1 0
"101-1-2" 4 2 "PRACTICE" -20 2 3 1 0 73917 NA 0 0 0 396 1 0
"101-1-2" 4 2 "PRACTICE" -19 2 2 0 1 75390 NA 0 0 9 478 1 0
"101-1-2" 4 2 "PRACTICE" -18 2 1 1 1 77068 NA 0 0 9 409 1 0
"101-1-2" 4 2 "TEST" 1 2 3 1 0 78474 NA 0 0 0 569 1 0
"101-1-2" 4 2 "TEST" 2 2 4 0 0 80136 NA 0 0 0 408 1 0
"101-1-2" 4 2 "TEST" 3 2 1 1 1 81628 NA 0 0 9 455 1 0
"101-1-2" 4 2 "TEST" 4 2 2 0 1 83342 NA 0 0 9 373 1 0
"101-1-2" 4 2 "TEST" 5 2 3 1 0 84907 NA 0 0 0 558 1 0
"101-1-2" 4 2 "TEST" 6 2 2 0 1 86646 NA 0 0 9 398 1 0
"101-1-2" 4 2 "TEST" 7 2 1 1 1 88144 NA 0 0 9 351 1 0
"101-1-2" 4 2 "TEST" 8 2 4 0 0 89636 NA 0 0 0 384 1 0
"101-1-2" 4 2 "TEST" 9 2 2 0 1 90990 NA 0 0 9 409 1 0
"101-1-2" 4 2 "TEST" 10 2 3 1 0 92303 NA 0 0 0 400 1 0
"101-1-2" 4 2 "TEST" 11 2 1 1 1 93967 NA 0 0 9 400 1 0
"101-1-2" 4 2 "TEST" 12 2 4 0 0 95493 NA 0 0 0 398 1 0
"101-1-2" 4 2 "TEST" 13 2 2 0 1 97142 NA 0 0 9 413 1 0
"101-1-2" 4 2 "TEST" 14 2 3 1 0 98624 NA 0 0 0 564 1 0
"101-1-2" 4 2 "TEST" 15 2 4 0 0 100483 NA 0 0 0 336 1 0
"101-1-2" 4 2 "TEST" 16 2 1 1 1 101700 NA 0 0 9 406 1 0
"101-1-2" 4 2 "TEST" 17 2 4 0 0 103249 NA 0 0 0 378 1 0
"101-1-2" 4 2 "TEST" 18 2 3 1 0 104737 NA 0 0 0 358 1 0
"101-1-2" 4 2 "TEST" 19 2 2 0 1 105930 NA 0 0 9 443 1 0
"101-1-2" 4 2 "TEST" 20 2 1 1 1 107252 NA 0 0 9 360 1 0
"101-1-2" 4 2 "TEST" 21 2 4 0 0 108544 NA 0 0 0 372 1 0
"101-1-2" 4 2 "TEST" 22 2 1 1 1 109861 NA 0 0 9 419 1 0
"101-1-2" 4 2 "TEST" 23 2 3 1 0 111280 NA 0 0 0 660 1 0
"101-1-2" 4 2 "TEST" 24 2 2 0 1 112897 NA 0 0 9 498 1 0
"101-1-2" 4 2 "TEST" 25 2 1 1 1 114688 NA 0 0 9 318 1 0
"101-1-2" 4 3 "PRACTICE" -25 3 4 0 0 125600 2 808 1 0 820 1 0
"101-1-2" 4 3 "PRACTICE" -24 3 1 1 1 127467 1 352 1 9 368 1 0
"101-1-2" 4 3 "PRACTICE" -23 3 2 0 1 128823 2 644 1 9 641 1 0
"101-1-2" 4 3 "PRACTICE" -22 3 3 1 0 130397 1 800 1 0 804 1 0
"101-1-2" 4 3 "PRACTICE" -21 3 3 1 0 132201 1 543 1 9 569 0 0
"101-1-2" 4 3 "PRACTICE" -20 3 4 0 0 134555 2 570 1 0 574 1 0
"101-1-2" 4 3 "PRACTICE" -19 3 2 0 1 136219 2 625 1 9 617 1 0
"101-1-2" 4 3 "PRACTICE" -18 3 1 1 1 137845 1 529 1 9 565 1 0
"101-1-2" 4 3 "TEST" 1 3 3 1 0 139583 1 702 1 0 720 1 0
"101-1-2" 4 3 "TEST" 2 3 2 0 1 141451 2 510 1 9 504 1 0
"101-1-2" 4 3 "TEST" 3 3 4 0 0 142847 2 633 1 0 629 1 0
"101-1-2" 4 3 "TEST" 4 3 1 1 1 144404 1 627 1 9 647 1 0
"101-1-2" 4 3 "TEST" 5 3 2 0 1 146099 2 441 1 9 437 1 0
"101-1-2" 4 3 "TEST" 6 3 4 0 0 147406 2 524 1 0 508 1 0
"101-1-2" 4 3 "TEST" 7 3 3 1 0 148858 1 471 1 0 465 1 0
"101-1-2" 4 3 "TEST" 8 3 1 1 1 150440 1 464 1 9 537 1 0
"101-1-2" 4 3 "TEST" 9 3 4 0 0 151965 2 516 1 0 478 1 0
"101-1-2" 4 3 "TEST" 10 3 3 1 0 153772 1 642 1 0 630 1 0
"101-1-2" 4 3 "TEST" 11 3 2 0 1 155485 2 451 1 9 467 1 0
"101-1-2" 4 3 "TEST" 12 3 1 1 1 156880 1 472 1 9 504 1 0
"101-1-2" 4 3 "TEST" 13 3 4 0 0 158623 2 423 1 0 415 1 0
"101-1-2" 4 3 "TEST" 14 3 2 0 1 160022 2 559 1 9 541 1 0
"101-1-2" 4 3 "TEST" 15 3 3 1 0 161667 1 547 1 0 554 1 0
"101-1-2" 4 3 "TEST" 16 3 1 1 1 163288 1 484 1 9 520 1 0
"101-1-2" 4 3 "TEST" 17 3 2 0 1 164879 2 527 1 9 521 1 0
"101-1-2" 4 3 "TEST" 18 3 4 0 0 166670 2 394 1 0 408 1 0
"101-1-2" 4 3 "TEST" 19 3 1 1 1 168264 1 388 1 9 419 1 0
"101-1-2" 4 3 "TEST" 20 3 3 1 0 169569 1 483 1 0 479 1 0
"101-1-2" 4 3 "TEST" 21 3 4 0 0 171192 2 431 1 0 402 1 0
"101-1-2" 4 3 "TEST" 22 3 2 0 1 172930 2 434 1 9 438 1 0
"101-1-2" 4 3 "TEST" 23 3 1 1 1 174678 1 462 1 9 486 1 0
"101-1-2" 4 3 "TEST" 24 3 3 1 0 176386 2 469 0 0 448 1 0
"101-1-2" 4 3 "TEST" 25 3 1 1 1 178647 1 463 1 9 481 1 0
"101-1-3" 4 1 "PRACTICE" -25 1 3 1 0 41400 1 516 1 NA 0 0 0
"101-1-3" 4 1 "PRACTICE" -24 1 2 0 1 42897 2 455 1 NA 0 0 0
"101-1-3" 4 1 "PRACTICE" -23 1 4 0 0 44289 2 398 1 NA 0 0 0
"101-1-3" 4 1 "PRACTICE" -22 1 1 1 1 45818 1 340 1 NA 0 0 0
"101-1-3" 4 1 "PRACTICE" -21 1 1 1 1 47274 1 334 1 NA 0 0 0
"101-1-3" 4 1 "PRACTICE" -20 1 4 0 0 48531 2 427 1 NA 0 0 0
"101-1-3" 4 1 "PRACTICE" -19 1 2 0 1 50042 2 357 1 NA 0 0 0
"101-1-3" 4 1 "PRACTICE" -18 1 3 1 0 51443 1 420 1 NA 0 0 0
"101-1-3" 4 1 "TEST" 1 1 3 1 0 52940 1 356 1 NA 0 0 0
"101-1-3" 4 1 "TEST" 2 1 2 0 1 54474 2 406 1 NA 0 0 0
"101-1-3" 4 1 "TEST" 3 1 1 1 1 56007 1 360 1 NA 0 0 0
"101-1-3" 4 1 "TEST" 4 1 4 0 0 57688 2 370 1 NA 0 0 0
"101-1-3" 4 1 "TEST" 5 1 2 0 1 59108 2 372 1 NA 0 0 0
"101-1-3" 4 1 "TEST" 6 1 3 1 0 60325 1 435 1 NA 0 0 0
"101-1-3" 4 1 "TEST" 7 1 4 0 0 61762 2 348 1 NA 0 0 0
"101-1-3" 4 1 "TEST" 8 1 1 1 1 63309 1 317 1 NA 0 0 0
"101-1-3" 4 1 "TEST" 9 1 4 0 0 64558 2 404 1 NA 0 0 0
"101-1-3" 4 1 "TEST" 10 1 1 1 1 66035 1 331 1 NA 0 0 0
"101-1-3" 4 1 "TEST" 11 1 3 1 0 67306 1 446 1 NA 0 0 0
"101-1-3" 4 1 "TEST" 12 1 2 0 1 69004 2 371 1 NA 0 0 0
"101-1-3" 4 1 "TEST" 13 1 4 0 0 70333 2 345 1 NA 0 0 0
"101-1-3" 4 1 "TEST" 14 1 3 1 0 71709 1 318 1 NA 0 0 0
"101-1-3" 4 1 "TEST" 15 1 2 0 1 73107 2 384 1 NA 0 0 0
"101-1-3" 4 1 "TEST" 16 1 1 1 1 74347 1 361 1 NA 0 0 0
"101-1-3" 4 1 "TEST" 17 1 3 1 0 75590 1 391 1 NA 0 0 0
"101-1-3" 4 1 "TEST" 18 1 2 0 1 77144 2 362 1 NA 0 0 0
"101-1-3" 4 1 "TEST" 19 1 4 0 0 78799 2 338 1 NA 0 0 0
"101-1-3" 4 1 "TEST" 20 1 1 1 1 80195 1 416 1 NA 0 0 0
"101-1-3" 4 1 "TEST" 21 1 2 0 1 81448 2 374 1 NA 0 0 0
"101-1-3" 4 1 "TEST" 22 1 3 1 0 82676 1 364 1 NA 0 0 0
"101-1-3" 4 1 "TEST" 23 1 4 0 0 84268 2 345 1 NA 0 0 0
"101-1-3" 4 1 "TEST" 24 1 1 1 1 85819 1 351 1 NA 0 0 0
"101-1-3" 4 1 "TEST" 25 1 4 0 0 87316 2 373 1 NA 0 0 0
"101-1-3" 4 2 "PRACTICE" -25 2 4 0 0 94471 NA 0 0 0 384 1 0
"101-1-3" 4 2 "PRACTICE" -24 2 2 0 1 96137 NA 0 0 9 408 1 0
"101-1-3" 4 2 "PRACTICE" -23 2 3 1 0 97623 NA 0 0 0 344 1 0
"101-1-3" 4 2 "PRACTICE" -22 2 1 1 1 99062 NA 0 0 9 321 1 0
"101-1-3" 4 2 "PRACTICE" -21 2 1 1 1 100370 NA 0 0 9 298 1 0
"101-1-3" 4 2 "PRACTICE" -20 2 3 1 0 101903 NA 0 0 0 326 1 0
"101-1-3" 4 2 "PRACTICE" -19 2 4 0 0 103441 NA 0 0 0 325 1 0
"101-1-3" 4 2 "PRACTICE" -18 2 2 0 1 104765 NA 0 0 9 383 1 0
"101-1-3" 4 2 "TEST" 1 2 1 1 1 106227 NA 0 0 9 370 1 0
"101-1-3" 4 2 "TEST" 2 2 4 0 0 107512 NA 0 0 0 390 1 0
"101-1-3" 4 2 "TEST" 3 2 2 0 1 109082 NA 0 0 9 324 1 0
"101-1-3" 4 2 "TEST" 4 2 3 1 0 110252 NA 0 0 0 444 1 0
"101-1-3" 4 2 "TEST" 5 2 4 0 0 111675 NA 0 0 0 360 1 0
"101-1-3" 4 2 "TEST" 6 2 1 1 1 112973 NA 0 0 9 402 1 0
"101-1-3" 4 2 "TEST" 7 2 3 1 0 114349 NA 0 0 0 330 1 0
"101-1-3" 4 2 "TEST" 8 2 2 0 1 115590 NA 0 0 9 412 1 0
"101-1-3" 4 2 "TEST" 9 2 1 1 1 117273 NA 0 0 9 426 1 0
"101-1-3" 4 2 "TEST" 10 2 3 1 0 118666 NA 0 0 0 386 1 0
"101-1-3" 4 2 "TEST" 11 2 4 0 0 120012 NA 0 0 0 367 1 0
"101-1-3" 4 2 "TEST" 12 2 2 0 1 121682 NA 0 0 9 358 1 0
"101-1-3" 4 2 "TEST" 13 2 3 1 0 122953 NA 0 0 0 338 1 0
"101-1-3" 4 2 "TEST" 14 2 4 0 0 124469 NA 0 0 0 392 1 0
"101-1-3" 4 2 "TEST" 15 2 1 1 1 126176 NA 0 0 9 394 1 0
"101-1-3" 4 2 "TEST" 16 2 2 0 1 127649 NA 0 0 9 357 1 0
"101-1-3" 4 2 "TEST" 17 2 4 0 0 129066 NA 0 0 0 332 1 0
"101-1-3" 4 2 "TEST" 18 2 1 1 1 130614 NA 0 0 9 350 1 0
"101-1-3" 4 2 "TEST" 19 2 3 1 0 131942 NA 0 0 0 374 1 0
"101-1-3" 4 2 "TEST" 20 2 2 0 1 133402 NA 0 0 9 328 1 0
"101-1-3" 4 2 "TEST" 21 2 1 1 1 134735 NA 0 0 9 384 1 0
"101-1-3" 4 2 "TEST" 22 2 3 1 0 136125 NA 0 0 0 393 1 0
"101-1-3" 4 2 "TEST" 23 2 4 0 0 137537 NA 0 0 0 330 1 0
"101-1-3" 4 2 "TEST" 24 2 2 0 1 138710 NA 0 0 9 354 1 0
"101-1-3" 4 2 "TEST" 25 2 3 1 0 140353 NA 0 0 0 368 1 0
"101-1-3" 4 3 "PRACTICE" -25 3 3 1 0 153071 1 669 1 0 662 1 0
"101-1-3" 4 3 "PRACTICE" -24 3 4 0 0 154920 2 436 1 0 426 1 0
"101-1-3" 4 3 "PRACTICE" -23 3 1 1 1 156549 1 500 1 9 504 1 0
"101-1-3" 4 3 "PRACTICE" -22 3 2 0 1 157920 2 640 1 9 636 1 0
"101-1-3" 4 3 "PRACTICE" -21 3 4 0 0 159625 2 488 1 0 480 1 0
"101-1-3" 4 3 "PRACTICE" -20 3 2 0 1 161127 2 486 1 9 478 1 0
"101-1-3" 4 3 "PRACTICE" -19 3 1 1 1 162838 1 582 1 9 564 1 0
"101-1-3" 4 3 "PRACTICE" -18 3 3 1 0 164483 1 627 1 0 623 1 0
"101-1-3" 4 3 "TEST" 1 3 4 0 0 165951 2 656 1 0 631 1 0
