subnum,block,trial,direction,stim,offset,fixationstart,delaytime,promptstart,arrowstart,maskstart,rt,corresp,resp,corr,bivalentcorr
102-1-3,P,0,-1,D,1,11691,3500,15197,15702,15702,658,<down>,<down>,1,1
102-1-3,P,0,1,U,1,16384,2500,18890,19396,19397,687,<up>,<up>,1,1
102-1-3,P,0,-1,U,2,20102,2250,22358,22865,22865,983,<up>,<up>,1,1
102-1-3,P,0,1,U,1,23865,1500,25370,25877,25877,530,<up>,<up>,1,1
102-1-3,P,0,-1,D,2,26430,2500,28934,29439,29440,668,<down>,<down>,1,1
102-1-3,P,0,1,D,1,30126,3000,33132,33639,33639,634,<down>,<down>,1,1
102-1-3,P,0,1,L,2,34302,2000,36306,36813,36813,1056,<left>,<left>,1,1
102-1-3,P,0,1,L,2,37885,3250,41139,41644,41645,542,<left>,<left>,1,1
102-1-3,P,0,1,D,2,49704,2000,51708,51913,51914,651,<down>,<down>,1,1
102-1-3,P,0,-1,U,2,52581,2750,55335,55540,55541,533,<up>,<down>,0,1
102-1-3,P,0,1,L,2,56087,2000,58093,58300,58300,522,<left>,<left>,1,1
102-1-3,P,0,1,R,1,58833,1750,60588,60795,60795,742,<right>,<right>,1,1
102-1-3,P,0,-1,R,2,61552,3250,64807,65014,65014,819,<right>,<right>,1,1
102-1-3,P,0,-1,D,1,65848,2500,68355,68562,68562,541,<down>,<down>,1,1
102-1-3,P,0,-1,D,2,69118,2000,71123,71330,71331,503,<down>,<down>,1,1
102-1-3,P,0,1,U,2,71853,1750,73607,73812,73813,576,<up>,<down>,0,1
102-1-3,T,1,1,R,1,77157,3000,80162,80369,80369,593,<right>,<right>,1,1
102-1-3,T,2,-1,U,1,80973,2750,83729,83935,83935,645,<up>,<up>,1,1
102-1-3,T,3,1,U,1,84595,2500,87101,87308,87309,452,<up>,<up>,1,1
102-1-3,T,4,1,L,1,87780,3500,91285,91492,91493,518,<left>,<left>,1,1
102-1-3,T,5,1,D,1,92025,1500,93529,93734,93734,495,<down>,<down>,1,1
102-1-3,T,6,-1,D,1,94240,3250,97495,97702,97703,535,<down>,<down>,1,1
102-1-3,T,7,-1,L,2,98253,3500,101758,101965,101965,699,<left>,<left>,1,1
102-1-3,T,8,-1,L,2,102678,2000,104683,104890,104891,602,<left>,<left>,1,1
102-1-3,T,9,1,L,1,105508,3000,108512,108717,108718,556,<left>,<left>,1,1
102-1-3,T,10,-1,R,1,109288,2250,111544,111751,111751,655,<right>,<left>,0,1
102-1-3,T,11,-1,R,2,112419,3500,115925,116132,116132,666,<right>,<right>,1,1
102-1-3,T,12,1,L,2,116812,1500,118317,118524,118525,573,<left>,<left>,1,1
102-1-3,T,13,1,R,2,119111,2250,121366,121572,121573,491,<right>,<left>,0,1
102-1-3,T,14,1,L,1,122076,1500,123580,123787,123787,591,<left>,<left>,1,1
102-1-3,T,15,-1,R,1,124392,3500,127897,128104,128104,618,<right>,<right>,1,1
102-1-3,T,16,-1,D,1,128735,1750,130490,130697,130698,659,<down>,<down>,1,1
102-1-3,T,17,-1,U,2,131373,2750,134129,134335,134335,679,<up>,<up>,1,1
102-1-3,T,18,-1,U,1,135027,3500,138533,138739,138740,652,<up>,<up>,1,1
102-1-3,T,19,-1,D,1,139406,3000,142412,142618,142619,600,<down>,<down>,1,1
102-1-3,T,20,1,R,2,143234,2500,145739,145946,145947,628,<right>,<right>,1,1
102-1-3,T,21,-1,R,1,146591,1750,148347,148554,148555,606,<right>,<right>,1,1
102-1-3,T,22,1,R,2,149176,1750,150931,151139,151139,663,<right>,<right>,1,1
102-1-3,T,23,1,L,2,151820,3500,155326,155532,155533,663,<left>,<left>,1,1
102-1-3,T,24,1,R,2,156211,1750,157966,158173,158173,612,<right>,<right>,1,1
102-1-3,T,25,1,D,1,158800,2000,160805,161012,161013,488,<down>,<down>,1,1
102-1-3,T,26,1,R,1,161513,1750,163269,163474,163475,469,<right>,<right>,1,1
102-1-3,T,27,1,L,1,163962,1750,165717,165923,165924,683,<left>,<left>,1,1
102-1-3,T,28,-1,D,2,166621,2500,169128,169335,169335,658,<down>,<down>,1,1
102-1-3,T,29,1,L,1,170006,2250,172261,172468,172468,604,<left>,<left>,1,1
102-1-3,T,30,-1,R,1,173085,3500,176592,176799,176799,532,<right>,<right>,1,1
102-1-3,T,31,-1,U,1,177358,3250,180613,180818,180819,671,<up>,<up>,1,1
102-1-3,T,32,1,U,1,181504,2750,184259,184466,184466,808,<up>,<up>,1,1
102-1-3,T,33,1,D,1,185286,1750,187042,187249,187249,636,<down>,<down>,1,1
102-1-3,T,34,1,U,2,187899,2500,190405,190610,190610,711,<up>,<up>,1,1
102-1-3,T,35,-1,U,2,191337,3000,194342,194549,194549,801,<up>,<up>,1,1
102-1-3,T,36,-1,L,1,195367,2250,197622,197827,197828,658,<left>,<left>,1,1
102-1-3,T,37,1,R,2,198500,3250,201756,201963,201963,873,<right>,<right>,1,1
102-1-3,T,38,-1,D,2,202849,2750,205604,205811,205812,758,<down>,<down>,1,1
102-1-3,T,39,1,R,1,206587,2500,209092,209297,209298,674,<right>,<right>,1,1
102-1-3,T,40,-1,U,1,209986,2750,212741,212948,212948,583,<up>,<up>,1,1
102-1-3,T,41,1,L,1,213547,2500,216052,216257,216258,644,<left>,<left>,1,1
102-1-3,T,42,1,D,2,216916,2000,218921,219128,219128,586,<down>,<down>,1,1
102-1-3,T,43,-1,D,2,219729,3500,223234,223439,223440,586,<down>,<down>,1,1
102-1-3,T,44,1,U,1,224040,2500,226546,226753,226753,651,<up>,<up>,1,1
102-1-3,T,45,-1,D,2,227418,2750,230172,230378,230379,664,<down>,<down>,1,1
102-1-3,T,46,1,D,2,231060,2000,233066,233273,233273,516,<down>,<down>,1,1
102-1-3,T,47,-1,D,2,233805,2250,236061,236267,236268,570,<down>,<down>,1,1
102-1-3,T,48,-1,R,2,236854,2250,239108,239313,239314,737,<right>,<right>,1,1
102-1-3,T,49,1,L,2,240067,1750,241823,242030,242030,794,<left>,<right>,0,1
102-1-3,T,50,1,D,1,242837,1750,244592,244799,244799,478,<down>,<down>,1,1
