subnum,block,trial,direction,stim,offset,fixationstart,delaytime,promptstart,arrowstart,maskstart,rt,corresp,resp,corr,bivalentcorr
103-4-1,P,0,-1,D,1,31610,2250,33866,34371,34372,690,<down>,<down>,1,1
103-4-1,P,0,-1,U,2,35082,2750,37836,38341,38341,690,<up>,<up>,1,1
103-4-1,P,0,-1,R,2,39050,2750,41806,42312,42313,650,<right>,<right>,1,1
103-4-1,P,0,1,D,1,42985,2500,45490,45995,45996,642,<down>,<down>,1,1
103-4-1,P,0,1,R,1,46656,2750,49412,49916,49916,527,<right>,<right>,1,1
103-4-1,P,0,1,D,2,50473,2000,52477,52982,52983,707,<down>,<down>,1,1
103-4-1,P,0,-1,D,2,53704,2500,56208,56713,56714,658,<down>,<down>,1,1
103-4-1,P,0,-1,R,1,57394,2500,59899,60404,60404,569,<right>,<right>,1,1
103-4-1,P,0,-1,U,2,63052,3500,66557,66764,66764,699,<up>,<up>,1,1
103-4-1,P,0,-1,R,2,67477,2000,69481,69686,69687,617,<right>,<right>,1,1
103-4-1,P,0,-1,R,1,70318,2500,72823,73030,73030,586,<right>,<right>,1,1
103-4-1,P,0,1,L,2,73630,3500,77134,77340,77341,709,<left>,<left>,1,1
103-4-1,P,0,-1,U,1,78062,1500,79566,79773,79773,581,<up>,<up>,1,1
103-4-1,P,0,1,L,2,80369,3250,83624,83831,83831,673,<left>,<left>,1,1
103-4-1,P,0,1,L,1,84518,2750,87272,87479,87480,622,<left>,<left>,1,1
103-4-1,P,0,-1,D,2,88124,3500,91629,91835,91836,898,<down>,<down>,1,1
103-4-1,T,1,1,L,2,94774,1750,96528,96735,96735,662,<left>,<left>,1,1
103-4-1,T,2,1,L,2,97413,1500,98919,99126,99126,1106,<left>,<left>,1,1
103-4-1,T,3,-1,U,1,100247,2250,102502,102709,102710,654,<up>,<up>,1,1
103-4-1,T,4,1,R,2,103379,3250,106633,106839,106839,678,<right>,<right>,1,1
103-4-1,T,5,-1,L,1,107536,3000,110540,110745,110746,565,<left>,<left>,1,1
103-4-1,T,6,-1,U,1,111328,1750,113084,113290,113290,541,<up>,<up>,1,1
103-4-1,T,7,1,L,1,113846,3000,116852,117058,117059,626,<left>,<left>,1,1
103-4-1,T,8,-1,R,2,117697,1500,119202,119409,119409,754,<right>,<right>,1,1
103-4-1,T,9,-1,R,2,120177,2250,122432,122640,122640,629,<right>,<right>,1,1
103-4-1,T,10,-1,L,1,123285,3000,126291,126496,126497,652,<left>,<left>,1,1
103-4-1,T,11,1,D,2,127164,3500,130670,130877,130877,818,<down>,<down>,1,1
103-4-1,T,12,-1,U,2,131710,2750,134465,134670,134670,681,<up>,<up>,1,1
103-4-1,T,13,1,L,2,135371,2750,138126,138332,138332,644,<left>,<left>,1,1
103-4-1,T,14,-1,R,1,138988,2000,140994,141201,141201,600,<right>,<right>,1,1
103-4-1,T,15,-1,L,1,141815,2750,144570,144777,144777,604,<left>,<left>,1,1
103-4-1,T,16,1,U,1,145394,3500,148899,149106,149107,552,<up>,<up>,1,1
103-4-1,T,17,-1,U,1,149673,3250,152929,153136,153136,627,<up>,<up>,1,1
103-4-1,T,18,-1,D,2,153779,2250,156034,156240,156241,779,<down>,<down>,1,1
103-4-1,T,19,-1,U,2,157034,1500,158539,158745,158745,746,<up>,<up>,1,1
103-4-1,T,20,1,U,2,159511,2250,161765,161972,161973,638,<up>,<up>,1,1
103-4-1,T,21,-1,D,1,162625,2000,164630,164836,164837,710,<down>,<down>,1,1
103-4-1,T,22,1,R,1,165560,2250,167814,168019,168020,582,<right>,<right>,1,1
103-4-1,T,23,1,U,2,168617,3500,172121,172326,172326,639,<up>,<up>,1,1
103-4-1,T,24,-1,U,2,172979,2000,174984,175190,175191,537,<up>,<up>,1,1
103-4-1,T,25,1,R,2,175746,3000,178751,178958,178958,608,<right>,<right>,1,1
103-4-1,T,26,1,U,2,179577,2500,182084,182291,182291,609,<up>,<up>,1,1
103-4-1,T,27,1,D,1,182915,1500,184420,184627,184627,668,<down>,<down>,1,1
103-4-1,T,28,-1,R,2,185312,3500,188818,189025,189025,609,<right>,<right>,1,1
103-4-1,T,29,-1,R,2,189647,2500,192153,192360,192360,651,<right>,<right>,1,1
103-4-1,T,30,-1,D,2,193025,2000,195030,195235,195236,806,<down>,<down>,1,1
103-4-1,T,31,1,D,1,196055,3500,199562,199769,199769,732,<down>,<down>,1,1
103-4-1,T,32,1,U,1,200516,3250,203771,203978,203978,554,<up>,<up>,1,1
103-4-1,T,33,1,R,1,204546,2000,206551,206757,206757,537,<right>,<right>,1,1
103-4-1,T,34,1,D,2,207308,3500,210814,211020,211021,853,<down>,<down>,1,1
103-4-1,T,35,1,R,1,211887,2750,214641,214846,214847,542,<right>,<right>,1,1
103-4-1,T,36,-1,L,1,215401,2500,217907,218112,218113,649,<left>,<left>,1,1
103-4-1,T,37,-1,R,1,218779,3000,221785,221992,221992,693,<right>,<right>,1,1
103-4-1,T,38,1,L,2,222700,3500,226205,226412,226412,683,<left>,<left>,1,1
103-4-1,T,39,-1,D,2,227110,1750,228865,229071,229071,745,<down>,<down>,1,1
103-4-1,T,40,-1,D,2,229830,1500,231334,231541,231542,682,<down>,<down>,1,1
103-4-1,T,41,-1,R,1,232240,1750,233995,234200,234201,524,<right>,<right>,1,1
103-4-1,T,42,-1,U,2,234740,1750,236495,236701,236701,634,<up>,<up>,1,1
103-4-1,T,43,-1,L,2,237351,3000,240357,240564,240564,632,<left>,<left>,1,1
103-4-1,T,44,-1,L,2,241212,2500,243717,243923,243924,557,<left>,<left>,1,1
103-4-1,T,45,1,L,2,244496,2500,247000,247206,247206,575,<left>,<left>,1,1
103-4-1,T,46,-1,R,1,247796,1750,249551,249758,249758,611,<right>,<right>,1,1
103-4-1,T,47,-1,U,1,250384,3250,253639,253845,253846,551,<up>,<up>,1,1
103-4-1,T,48,1,R,1,254413,3000,257417,257624,257624,536,<right>,<right>,1,1
103-4-1,T,49,-1,R,1,258176,2750,260930,261135,261136,498,<right>,<right>,1,1
103-4-1,T,50,-1,R,1,261647,3250,264902,265108,265108,518,<right>,<right>,1,1
