subnum,stimtype,block,trialtype,trial,condition,stim,dim1,dim2,time0,resp1,rt1,corr1,resp2,rt2,corr2,tooslow
103-2-2,4,1,PRACTICE,-25,1,1,1,1,12194,1,672,1,NA,0,0,0
103-2-2,4,1,PRACTICE,-24,1,2,0,1,14049,2,566,1,NA,0,0,0
103-2-2,4,1,PRACTICE,-23,1,3,1,0,15821,1,410,1,NA,0,0,0
103-2-2,4,1,PRACTICE,-22,1,4,0,0,17542,2,466,1,NA,0,0,0
103-2-2,4,1,PRACTICE,-21,1,4,0,0,19280,2,480,1,NA,0,0,0
103-2-2,4,1,PRACTICE,-20,1,3,1,0,20785,1,435,1,NA,0,0,0
103-2-2,4,1,PRACTICE,-19,1,1,1,1,22423,1,513,1,NA,0,0,0
103-2-2,4,1,PRACTICE,-18,1,2,0,1,24001,2,514,1,NA,0,0,0
103-2-2,4,1,TEST,1,1,3,1,0,25391,1,454,1,NA,0,0,0
103-2-2,4,1,TEST,2,1,2,0,1,27033,2,521,1,NA,0,0,0
103-2-2,4,1,TEST,3,1,1,1,1,28495,1,463,1,NA,0,0,0
103-2-2,4,1,TEST,4,1,4,0,0,30144,2,530,1,NA,0,0,0
103-2-2,4,1,TEST,5,1,2,0,1,31726,2,459,1,NA,0,0,0
103-2-2,4,1,TEST,6,1,3,1,0,33197,1,421,1,NA,0,0,0
103-2-2,4,1,TEST,7,1,1,1,1,34707,1,473,1,NA,0,0,0
103-2-2,4,1,TEST,8,1,4,0,0,36468,2,470,1,NA,0,0,0
103-2-2,4,1,TEST,9,1,1,1,1,38149,1,452,1,NA,0,0,0
103-2-2,4,1,TEST,10,1,4,0,0,39727,2,555,1,NA,0,0,0
103-2-2,4,1,TEST,11,1,3,1,0,41220,1,526,1,NA,0,0,0
103-2-2,4,1,TEST,12,1,2,0,1,43074,2,439,1,NA,0,0,0
103-2-2,4,1,TEST,13,1,4,0,0,44445,2,530,1,NA,0,0,0
103-2-2,4,1,TEST,14,1,1,1,1,46283,1,434,1,NA,0,0,0
103-2-2,4,1,TEST,15,1,3,1,0,48040,1,1140,1,NA,0,0,0
103-2-2,4,1,TEST,16,1,2,0,1,50161,2,796,1,NA,0,0,0
103-2-2,4,1,TEST,17,1,4,0,0,52209,2,594,1,NA,0,0,0
103-2-2,4,1,TEST,18,1,1,1,1,53745,1,452,1,NA,0,0,0
103-2-2,4,1,TEST,19,1,2,0,1,55047,2,462,1,NA,0,0,0
103-2-2,4,1,TEST,20,1,3,1,0,56418,1,525,1,NA,0,0,0
103-2-2,4,1,TEST,21,1,4,0,0,57944,2,693,1,NA,0,0,0
103-2-2,4,1,TEST,22,1,2,0,1,59473,2,812,1,NA,0,0,0
103-2-2,4,1,TEST,23,1,1,1,1,61287,1,492,1,NA,0,0,0
103-2-2,4,1,TEST,24,1,3,1,0,62998,1,397,1,NA,0,0,0
103-2-2,4,1,TEST,25,1,2,0,1,64393,2,1845,1,NA,0,0,0
103-2-2,4,2,PRACTICE,-25,2,2,0,1,71927,NA,0,0,9,620,1,0
103-2-2,4,2,PRACTICE,-24,2,3,1,0,73614,NA,0,0,0,380,1,0
103-2-2,4,2,PRACTICE,-23,2,4,0,0,74892,NA,0,0,0,396,1,0
103-2-2,4,2,PRACTICE,-22,2,1,1,1,76531,NA,0,0,9,470,1,0
103-2-2,4,2,PRACTICE,-21,2,2,0,1,78315,NA,0,0,9,519,1,0
103-2-2,4,2,PRACTICE,-20,2,3,1,0,79962,NA,0,0,0,369,1,0
103-2-2,4,2,PRACTICE,-19,2,4,0,0,81166,NA,0,0,0,478,1,0
103-2-2,4,2,PRACTICE,-18,2,1,1,1,82481,NA,0,0,9,438,1,0
103-2-2,4,2,TEST,1,2,1,1,1,83948,NA,0,0,9,585,1,0
103-2-2,4,2,TEST,2,2,2,0,1,85475,NA,0,0,9,438,1,0
103-2-2,4,2,TEST,3,2,4,0,0,87116,NA,0,0,0,449,1,0
103-2-2,4,2,TEST,4,2,3,1,0,88776,NA,0,0,0,461,1,0
103-2-2,4,2,TEST,5,2,1,1,1,90479,NA,0,0,9,366,1,0
103-2-2,4,2,TEST,6,2,3,1,0,91838,NA,0,0,0,427,1,0
103-2-2,4,2,TEST,7,2,2,0,1,93160,NA,0,0,9,517,1,0
103-2-2,4,2,TEST,8,2,4,0,0,94580,NA,0,0,0,440,1,0
103-2-2,4,2,TEST,9,2,1,1,1,95962,NA,0,0,9,464,1,0
103-2-2,4,2,TEST,10,2,3,1,0,97719,NA,0,0,0,452,1,0
103-2-2,4,2,TEST,11,2,4,0,0,99328,NA,0,0,0,335,1,0
103-2-2,4,2,TEST,12,2,2,0,1,100755,NA,0,0,9,603,1,0
103-2-2,4,2,TEST,13,2,3,1,0,102511,NA,0,0,0,392,1,0
103-2-2,4,2,TEST,14,2,1,1,1,103746,NA,0,0,9,500,1,0
103-2-2,4,2,TEST,15,2,4,0,0,105259,NA,0,0,0,440,1,0
103-2-2,4,2,TEST,16,2,2,0,1,107016,NA,0,0,9,430,1,0
103-2-2,4,2,TEST,17,2,1,1,1,108513,NA,0,0,9,1041,1,0
103-2-2,4,2,TEST,18,2,4,0,0,110832,NA,0,0,0,517,1,0
103-2-2,4,2,TEST,19,2,3,1,0,112538,NA,0,0,0,427,1,0
103-2-2,4,2,TEST,20,2,2,0,1,113830,NA,0,0,9,433,1,0
103-2-2,4,2,TEST,21,2,3,1,0,115587,NA,0,0,0,354,1,0
103-2-2,4,2,TEST,22,2,1,1,1,117054,NA,0,0,9,413,1,0
103-2-2,4,2,TEST,23,2,4,0,0,118563,NA,0,0,0,293,1,0
103-2-2,4,2,TEST,24,2,2,0,1,120117,NA,0,0,9,395,1,0
103-2-2,4,2,TEST,25,2,4,0,0,121655,NA,0,0,0,423,1,0
103-2-2,4,3,PRACTICE,-25,3,2,0,1,135572,2,793,1,9,830,1,0
103-2-2,4,3,PRACTICE,-24,3,1,1,1,137606,1,1179,1,9,1193,1,0
103-2-2,4,3,PRACTICE,-23,3,4,0,0,139772,2,577,1,0,573,1,0
103-2-2,4,3,PRACTICE,-22,3,3,1,0,141516,1,684,1,0,700,1,0
103-2-2,4,3,PRACTICE,-21,3,4,0,0,143329,2,1005,1,0,1009,1,0
103-2-2,4,3,PRACTICE,-20,3,3,1,0,145211,1,619,1,0,611,1,0
103-2-2,4,3,PRACTICE,-19,3,2,0,1,146845,2,599,1,9,577,1,0
103-2-2,4,3,PRACTICE,-18,3,1,1,1,148388,1,665,1,9,648,1,0
103-2-2,4,3,TEST,1,3,2,0,1,150066,2,1153,1,9,1189,1,0
103-2-2,4,3,TEST,2,3,1,1,1,152356,1,1187,1,9,1197,1,0
103-2-2,4,3,TEST,3,3,4,0,0,154655,2,1638,1,0,1632,1,0
103-2-2,4,3,TEST,4,3,3,1,0,157498,1,851,1,0,848,1,0
103-2-2,4,3,TEST,5,3,2,0,1,159517,2,681,1,9,671,1,0
103-2-2,4,3,TEST,6,3,1,1,1,161156,1,687,1,9,683,1,0
103-2-2,4,3,TEST,7,3,4,0,0,163098,2,746,1,0,728,1,0
103-2-2,4,3,TEST,8,3,3,1,0,164833,1,695,1,0,673,1,0
103-2-2,4,3,TEST,9,3,4,0,0,166840,2,1135,1,0,1109,1,0
103-2-2,4,3,TEST,10,3,2,0,1,168824,2,612,1,9,616,1,0
103-2-2,4,3,TEST,11,3,3,1,0,170646,1,578,1,0,570,1,0
103-2-2,4,3,TEST,12,3,1,1,1,172250,1,878,1,9,872,1,0
103-2-2,4,3,TEST,13,3,4,0,0,174424,2,1575,1,0,1561,1,0
103-2-2,4,3,TEST,14,3,2,0,1,176883,2,1331,1,9,1327,1,0
103-2-2,4,3,TEST,15,3,3,1,0,179087,1,651,1,0,667,1,0
103-2-2,4,3,TEST,16,3,1,1,1,180808,1,921,1,9,925,1,0
103-2-2,4,3,TEST,17,3,2,0,1,182862,2,575,1,9,572,1,0
103-2-2,4,3,TEST,18,3,3,1,0,184512,1,523,1,0,527,1,0
103-2-2,4,3,TEST,19,3,1,1,1,186354,1,1236,1,9,1254,1,0
103-2-2,4,3,TEST,20,3,4,0,0,188925,2,799,1,0,803,1,0
103-2-2,4,3,TEST,21,3,1,1,1,190830,1,892,1,9,780,1,0
103-2-2,4,3,TEST,22,3,3,1,0,193023,1,650,1,0,670,1,0
103-2-2,4,3,TEST,23,3,4,0,0,194651,2,976,1,0,990,1,0
103-2-2,4,3,TEST,24,3,2,0,1,196817,2,677,1,9,672,1,0
103-2-2,4,3,TEST,25,3,1,1,1,198441,1,734,1,9,748,1,0
