"subnum" "block" "trial" "direction" "stim" "offset" "fixationstart" "delaytime" "promptstart" "arrowstart" "maskstart" "rt" "corresp" "resp" "corr" "bivalentcorr"
"100-1-1" "P" 0 1 "D" 2 64007 1750 65764 "66270" "66270" 630 "<down>" "<right>" 0 0
"100-1-1" "P" 0 1 "R" 1 66924 2000 68929 "69434" "69434" 608 "<right>" "<right>" 1 1
"100-1-1" "P" 0 -1 "U" 2 70062 2250 72316 "72823" "72823" 672 "<up>" "<up>" 1 1
"100-1-1" "P" 0 1 "U" 2 73510 1500 75016 "75520" "75520" 701 "<up>" "<up>" 1 1
"100-1-1" "P" 0 -1 "L" 1 76246 2500 78751 "79255" "79256" 536 "<left>" "<left>" 1 1
"100-1-1" "P" 0 -1 "L" 1 79816 2250 82071 "82578" "82579" 486 "<left>" "<left>" 1 1
"100-1-1" "P" 0 -1 "L" 2 83087 3000 86092 "86598" "86599" 632 "<left>" "<left>" 1 1
"100-1-1" "P" 0 -1 "R" 2 87248 3250 90502 "91008" "91009" 701 "<right>" "<right>" 1 1
"100-1-1" "P" 0 1 "L" 2 99151 3250 102407 "102614" "102614" 1082 "<left>" "<right>" 0 1
"100-1-1" "P" 0 -1 "R" 1 103710 2750 106465 "106670" "106671" 828 "<right>" "<right>" 1 1
"100-1-1" "P" 0 1 "R" 2 107511 3000 110516 "110724" "110725" 787 "<right>" "<right>" 1 1
"100-1-1" "P" 0 1 "L" 1 111524 1750 113279 "113486" "113486" 639 "<left>" "<left>" 1 1
"100-1-1" "P" 0 -1 "U" 2 114137 3250 117393 "117600" "117601" 1881 "<up>" "<up>" 1 1
"100-1-1" "P" 0 -1 "U" 1 119496 2750 122251 "122456" "122457" 625 "<up>" "<up>" 1 1
"100-1-1" "P" 0 1 "U" 2 123094 2000 125098 "125303" "125304" 1033 "<up>" "<down>" 0 1
"100-1-1" "P" 0 1 "D" 1 126351 2750 129107 "129314" "129314" 744 "<down>" "<down>" 1 1
"100-1-1" "T" 1 1 "L" 1 133923 3250 137178 "137385" "137386" 640 "<left>" "<left>" 1 1
"100-1-1" "T" 2 -1 "L" 1 138038 3500 141543 "141750" "141751" 665 "<left>" "<left>" 1 1
"100-1-1" "T" 3 -1 "L" 2 142431 2500 144936 "145143" "145144" 838 "<left>" "<right>" 0 1
"100-1-1" "T" 4 -1 "R" 1 145996 3250 149251 "149458" "149458" 673 "<right>" "<right>" 1 1
"100-1-1" "T" 5 -1 "L" 1 150144 2750 152900 "153107" "153107" 635 "<left>" "<left>" 1 1
"100-1-1" "T" 6 -1 "L" 2 153756 2000 155762 "155969" "155970" 601 "<left>" "<left>" 1 1
"100-1-1" "T" 7 1 "L" 1 156584 3500 160089 "160294" "160295" 638 "<left>" "<left>" 1 1
"100-1-1" "T" 8 -1 "R" 1 160947 3000 163952 "164158" "164158" 603 "<right>" "<right>" 1 1
"100-1-1" "T" 9 -1 "D" 2 164775 2250 167031 "167238" "167238" 706 "<down>" "<down>" 1 1
"100-1-1" "T" 10 1 "L" 1 167957 3000 170961 "171166" "171167" 636 "<left>" "<left>" 1 1
"100-1-1" "T" 11 1 "L" 1 171817 3000 174821 "175028" "175028" 558 "<left>" "<left>" 1 1
"100-1-1" "T" 12 1 "L" 1 175599 3250 178854 "179059" "179060" 559 "<left>" "<left>" 1 1
"100-1-1" "T" 13 1 "D" 1 179634 3000 182638 "182844" "182845" 819 "<down>" "<down>" 1 1
"100-1-1" "T" 14 1 "R" 2 183681 2500 186187 "186394" "186394" 710 "<right>" "<right>" 1 1
"100-1-1" "T" 15 1 "L" 1 187118 2750 189873 "190080" "190081" 601 "<left>" "<left>" 1 1
"100-1-1" "T" 16 -1 "L" 1 190696 3250 193952 "194157" "194158" 677 "<left>" "<left>" 1 1
"100-1-1" "T" 17 -1 "D" 2 194851 2500 197356 "197561" "197561" 881 "<down>" "<up>" 0 1
"100-1-1" "T" 18 -1 "R" 2 198455 3000 201460 "201667" "201668" 615 "<right>" "<right>" 1 1
"100-1-1" "T" 19 1 "U" 2 202297 3250 205552 "205759" "205759" 1020 "<up>" "<down>" 0 1
"100-1-1" "T" 20 1 "U" 1 206793 3000 209799 "210005" "210006" 666 "<up>" "<up>" 1 1
"100-1-1" "T" 21 1 "L" 2 210691 2000 212696 "212903" "212903" 695 "<left>" "<left>" 1 1
"100-1-1" "T" 22 1 "R" 2 213613 2750 216368 "216575" "216575" 643 "<right>" "<right>" 1 1
"100-1-1" "T" 23 1 "L" 1 217232 2750 219987 "220193" "220194" 554 "<left>" "<left>" 1 1
"100-1-1" "T" 24 -1 "L" 2 220762 2250 223016 "223221" "223222" 813 "<left>" "<left>" 1 1
"100-1-1" "T" 25 -1 "L" 1 224051 3500 227557 "227763" "227763" 652 "<left>" "<left>" 1 1
"100-1-1" "T" 26 -1 "U" 1 228431 3250 231686 "231893" "231893" 708 "<up>" "<up>" 1 1
"100-1-1" "T" 27 -1 "D" 2 232615 1750 234370 "234577" "234577" 754 "<down>" "<down>" 1 1
"100-1-1" "T" 28 -1 "U" 1 235345 1500 236850 "237057" "237058" 669 "<up>" "<up>" 1 1
"100-1-1" "T" 29 1 "U" 1 237741 3250 240997 "241204" "241205" 662 "<up>" "<up>" 1 1
"100-1-1" "T" 30 1 "L" 1 241882 1500 243388 "243593" "243594" 660 "<left>" "<left>" 1 1
"100-1-1" "T" 31 -1 "R" 2 244268 1750 246023 "246229" "246230" 638 "<right>" "<right>" 1 1
"100-1-1" "T" 32 1 "R" 1 246882 2250 249137 "249342" "249343" 605 "<right>" "<left>" 0 1
"100-1-1" "T" 33 -1 "L" 1 249961 1750 251716 "251923" "251924" 730 "<left>" "<left>" 1 1
"100-1-1" "T" 34 -1 "R" 1 252670 1750 254426 "254633" "254633" 590 "<right>" "<right>" 1 1
"100-1-1" "T" 35 -1 "U" 2 255237 3000 258242 "258449" "258449" 718 "<up>" "<up>" 1 1
"100-1-1" "T" 36 1 "L" 2 259181 3500 262686 "262893" "262893" 689 "<left>" "<left>" 1 1
"100-1-1" "T" 37 -1 "D" 2 263596 2500 266102 "266308" "266309" 765 "<down>" "<down>" 1 1
"100-1-1" "T" 38 1 "U" 2 267089 2250 269344 "269551" "269551" 648 "<up>" "<up>" 1 1
"100-1-1" "T" 39 -1 "D" 1 270216 2750 272971 "273175" "273175" 745 "<down>" "<down>" 1 1
"100-1-1" "T" 40 -1 "D" 2 273934 3500 277440 "277647" "277648" 791 "<down>" "<down>" 1 1
"100-1-1" "T" 41 1 "D" 1 278455 3500 281961 "282168" "282169" 737 "<down>" "<down>" 1 1
"100-1-1" "T" 42 1 "L" 2 282921 2750 285677 "285884" "285885" 711 "<left>" "<left>" 1 1
"100-1-1" "T" 43 1 "L" 2 286612 3000 289616 "289823" "289824" 609 "<left>" "<left>" 1 1
"100-1-1" "T" 44 1 "R" 2 290446 2750 293201 "293408" "293409" 635 "<right>" "<right>" 1 1
"100-1-1" "T" 45 1 "R" 1 294059 3500 297565 "297771" "297771" 638 "<right>" "<right>" 1 1
"100-1-1" "T" 46 1 "L" 1 298422 2250 300678 "300883" "300884" 588 "<left>" "<left>" 1 1
"100-1-1" "T" 47 1 "R" 2 301486 3250 304742 "304949" "304949" 612 "<right>" "<right>" 1 1
"100-1-1" "T" 48 1 "L" 2 305576 3500 309082 "309289" "309290" 736 "<left>" "<left>" 1 1
"100-1-1" "T" 49 1 "D" 2 310040 1500 311546 "311753" "311754" 757 "<down>" "<down>" 1 1
"100-1-1" "T" 50 -1 "U" 2 312524 2750 315280 "315487" "315488" 793 "<up>" "<up>" 1 1
"100-1-2" "P" 0 -1 "R" 2 6054 1750 7811 "8318" "8318" 642 "<right>" "<right>" 1 1
"100-1-2" "P" 0 -1 "D" 2 8972 3000 11978 "12483" "12484" 675 "<down>" "<down>" 1 1
"100-1-2" "P" 0 1 "D" 2 13170 2500 15676 "16183" "16184" 668 "<down>" "<down>" 1 1
"100-1-2" "P" 0 -1 "D" 1 16863 1500 18369 "18874" "18875" 588 "<down>" "<down>" 1 1
"100-1-2" "P" 0 -1 "U" 1 19479 1750 21234 "21740" "21740" 604 "<up>" "<up>" 1 1
"100-1-2" "P" 0 1 "L" 2 22358 2250 24614 "25120" "25120" 575 "<left>" "<left>" 1 1
"100-1-2" "P" 0 -1 "D" 1 25706 3500 29212 "29718" "29718" 593 "<down>" "<down>" 1 1
"100-1-2" "P" 0 1 "L" 1 30325 3000 33329 "33835" "33836" 633 "<left>" "<left>" 1 1
"100-1-2" "P" 0 -1 "U" 2 39015 1500 40520 "40725" "40726" 1148 "<up>" "<up>" 1 1
"100-1-2" "P" 0 1 "R" 1 41887 2750 44643 "44850" "44850" 572 "<right>" "<right>" 1 1
"100-1-2" "P" 0 -1 "U" 2 45434 1750 47188 "47396" "47396" 722 "<up>" "<up>" 1 1
"100-1-2" "P" 0 -1 "D" 2 48130 2500 50635 "50841" "50841" 733 "<down>" "<down>" 1 1
"100-1-2" "P" 0 1 "U" 2 51588 3250 54844 "55050" "55050" 700 "<up>" "<up>" 1 1
"100-1-2" "P" 0 -1 "U" 1 55766 3000 58771 "58976" "58977" 606 "<up>" "<up>" 1 1
"100-1-2" "P" 0 -1 "U" 2 59598 3250 62853 "63060" "63060" 652 "<up>" "<up>" 1 1
"100-1-2" "P" 0 1 "L" 2 63726 3500 67231 "67437" "67438" 637 "<left>" "<left>" 1 1
"100-1-2" "T" 1 1 "U" 1 72683 2500 75189 "75396" "75397" 632 "<up>" "<up>" 1 1
"100-1-2" "T" 2 -1 "U" 1 76043 3000 79048 "79254" "79254" 575 "<up>" "<up>" 1 1
"100-1-2" "T" 3 1 "L" 1 79842 3250 83097 "83302" "83303" 624 "<left>" "<left>" 1 1
"100-1-2" "T" 4 -1 "D" 1 83939 1750 85695 "85902" "85903" 717 "<down>" "<down>" 1 1
"100-1-2" "T" 5 1 "D" 2 86634 3500 90139 "90344" "90344" 761 "<down>" "<down>" 1 1
"100-1-2" "T" 6 -1 "D" 2 91124 2500 93630 "93835" "93835" 764 "<down>" "<down>" 1 1
"100-1-2" "T" 7 1 "U" 1 94619 3500 98124 "98329" "98330" 589 "<up>" "<up>" 1 1
"100-1-2" "T" 8 -1 "R" 1 98935 1750 100690 "100897" "100897" 555 "<right>" "<right>" 1 1
"100-1-2" "T" 9 -1 "D" 1 101465 1750 103220 "103425" "103426" 588 "<down>" "<down>" 1 1
"100-1-2" "T" 10 -1 "U" 2 104029 1500 105534 "105741" "105741" 735 "<up>" "<up>" 1 1
"100-1-2" "T" 11 1 "U" 1 106490 2500 108995 "109202" "109202" 728 "<up>" "<right>" 0 0
"100-1-2" "T" 12 1 "U" 1 109940 1750 111695 "111902" "111902" 532 "<up>" "<up>" 1 1
"100-1-2" "T" 13 -1 "L" 2 112450 2750 115205 "115412" "115412" 756 "<left>" "<left>" 1 1
"100-1-2" "T" 14 -1 "L" 1 116183 3250 119438 "119644" "119645" 618 "<left>" "<left>" 1 1
"100-1-2" "T" 15 -1 "U" 1 120276 3500 123781 "123987" "123987" 640 "<up>" "<up>" 1 1
"100-1-2" "T" 16 -1 "L" 1 124640 2750 127396 "127603" "127603" 616 "<left>" "<left>" 1 1
"100-1-2" "T" 17 -1 "D" 1 128233 1500 129739 "129946" "129946" 680 "<down>" "<down>" 1 1
"100-1-2" "T" 18 1 "R" 1 130643 3000 133647 "133854" "133855" 704 "<right>" "<right>" 1 1
"100-1-2" "T" 19 1 "D" 2 134574 3250 137829 "138035" "138035" 789 "<down>" "<down>" 1 1
"100-1-2" "T" 20 -1 "U" 1 138838 3500 142344 "142547" "142547" 731 "<up>" "<up>" 1 1
"100-1-2" "T" 21 1 "D" 2 143294 3500 146798 "147003" "147004" 794 "<down>" "<down>" 1 1
"100-1-2" "T" 22 1 "U" 2 147812 2500 150316 "150521" "150522" 604 "<up>" "<up>" 1 1
"100-1-2" "T" 23 1 "D" 2 151140 2250 153394 "153600" "153600" 734 "<down>" "<down>" 1 1
"100-1-2" "T" 24 1 "R" 1 154349 3250 157605 "157812" "157812" 641 "<right>" "<right>" 1 1
"100-1-2" "T" 25 1 "D" 1 158466 1750 160222 "160429" "160430" 654 "<down>" "<down>" 1 1
"100-1-2" "T" 26 -1 "L" 1 161098 3000 164103 "164309" "164309" 636 "<left>" "<left>" 1 1
"100-1-2" "T" 27 -1 "D" 2 164959 1750 166715 "166920" "166921" 866 "<down>" "<down>" 1 1
"100-1-2" "T" 28 1 "D" 1 167801 2000 169807 "170014" "170015" 664 "<down>" "<down>" 1 1
"100-1-2" "T" 29 1 "R" 1 170696 2250 172951 "173157" "173158" 621 "<right>" "<right>" 1 1
"100-1-2" "T" 30 1 "U" 1 173795 2000 175800 "176007" "176007" 505 "<up>" "<up>" 1 1
"100-1-2" "T" 31 -1 "D" 1 176527 1750 178282 "178489" "178489" 658 "<down>" "<down>" 1 1
"100-1-2" "T" 32 -1 "D" 1 179159 2750 181915 "182120" "182121" 650 "<down>" "<down>" 1 1
"100-1-2" "T" 33 -1 "U" 1 182786 2750 185542 "185749" "185749" 533 "<up>" "<up>" 1 1
"100-1-2" "T" 34 -1 "D" 2 186297 2750 189052 "189259" "189259" 763 "<down>" "<down>" 1 1
"100-1-2" "T" 35 -1 "D" 2 190035 2750 192791 "192998" "192998" 672 "<down>" "<down>" 1 1
"100-1-2" "T" 36 1 "U" 2 193687 3500 197192 "197398" "197398" 694 "<up>" "<up>" 1 1
"100-1-2" "T" 37 1 "D" 1 198104 2250 200358 "200565" "200566" 672 "<down>" "<down>" 1 1
"100-1-2" "T" 38 -1 "L" 1 201252 1500 202756 "202961" "202962" 563 "<left>" "<left>" 1 1
"100-1-2" "T" 39 1 "L" 1 203539 2750 206295 "206501" "206502" 511 "<left>" "<left>" 1 1
"100-1-2" "T" 40 1 "D" 1 207028 2500 209533 "209739" "209740" 638 "<down>" "<down>" 1 1
"100-1-2" "T" 41 -1 "L" 2 210390 3000 213396 "213602" "213602" 768 "<left>" "<right>" 0 1
"100-1-2" "T" 42 -1 "R" 2 214384 3000 217390 "217596" "217596" 638 "<right>" "<right>" 1 1
"100-1-2" "T" 43 1 "U" 2 218248 2500 220752 "220956" "220956" 797 "<up>" "<down>" 0 1
"100-1-2" "T" 44 -1 "L" 1 221770 2750 224525 "224731" "224732" 873 "<left>" "<left>" 1 1
"100-1-2" "T" 45 -1 "U" 2 225620 2750 228376 "228583" "228583" 670 "<up>" "<up>" 1 1
"100-1-2" "T" 46 -1 "L" 2 229267 1500 230772 "230979" "230980" 605 "<left>" "<left>" 1 1
"100-1-2" "T" 47 1 "L" 1 231599 2500 234104 "234311" "234311" 563 "<left>" "<left>" 1 1
"100-1-2" "T" 48 1 "D" 2 234890 3500 238396 "238602" "238602" 753 "<down>" "<down>" 1 1
"100-1-2" "T" 49 -1 "U" 2 239371 3500 242877 "243082" "243083" 804 "<up>" "<up>" 1 1
"100-1-2" "T" 50 1 "L" 2 243901 3000 246907 "247113" "247113" 748 "<left>" "<left>" 1 1
"100-1-3" "P" 0 -1 "R" 2 16957 3500 20463 "20970" "20971" 669 "<right>" "<right>" 1 1
"100-1-3" "P" 0 -1 "R" 2 21657 2000 23664 "24170" "24171" 613 "<right>" "<right>" 1 1
"100-1-3" "P" 0 -1 "L" 2 24799 3500 28305 "28812" "28812" 669 "<left>" "<left>" 1 1
"100-1-3" "P" 0 1 "L" 1 29494 2750 32249 "32756" "32756" 629 "<left>" "<left>" 1 1
"100-1-3" "P" 0 -1 "U" 1 33400 1750 35154 "35661" "35661" 729 "<up>" "<up>" 1 1
"100-1-3" "P" 0 -1 "D" 1 36409 3000 39415 "39920" "39921" 702 "<down>" "<down>" 1 1
"100-1-3" "P" 0 -1 "D" 2 40642 1500 42147 "42655" "42655" 601 "<down>" "<down>" 1 1
"100-1-3" "P" 0 1 "L" 1 43274 2250 45530 "46036" "46037" 558 "<left>" "<left>" 1 1
"100-1-3" "P" 0 -1 "R" 1 50601 2250 52856 "53065" "53065" 679 "<right>" "<right>" 1 1
"100-1-3" "P" 0 1 "R" 2 53757 2000 55764 "55972" "55972" 614 "<right>" "<right>" 1 1
"100-1-3" "P" 0 1 "L" 1 56606 2000 58612 "58818" "58819" 545 "<left>" "<left>" 1 1
"100-1-3" "P" 0 1 "R" 2 59381 3500 62887 "63093" "63094" 800 "<right>" "<right>" 1 1
"100-1-3" "P" 0 -1 "L" 1 63904 2750 66660 "66869" "66869" 567 "<left>" "<left>" 1 1
"100-1-3" "P" 0 -1 "L" 2 67451 3250 70707 "70913" "70914" 817 "<left>" "<left>" 1 1
"100-1-3" "P" 0 1 "L" 1 71743 3250 74998 "75204" "75204" 658 "<left>" "<left>" 1 1
"100-1-3" "P" 0 1 "R" 2 75873 2500 78379 "78585" "78586" 661 "<right>" "<right>" 1 1
"100-1-3" "T" 1 -1 "R" 1 82677 2500 85183 "85390" "85390" 610 "<right>" "<right>" 1 1
"100-1-3" "T" 2 -1 "D" 1 86012 3250 89267 "89474" "89474" 604 "<down>" "<down>" 1 1
"100-1-3" "T" 3 -1 "L" 1 90090 1500 91596 "91802" "91803" 706 "<left>" "<left>" 1 1
"100-1-3" "T" 4 -1 "U" 1 92521 1750 94277 "94483" "94484" 620 "<up>" "<up>" 1 1
"100-1-3" "T" 5 1 "R" 1 95114 1500 96618 "96826" "96826" 624 "<right>" "<right>" 1 1
"100-1-3" "T" 6 -1 "U" 1 97465 2750 100221 "100427" "100428" 612 "<up>" "<up>" 1 1
"100-1-3" "T" 7 -1 "L" 2 101058 3500 104563 "104770" "104770" 674 "<left>" "<left>" 1 1
"100-1-3" "T" 8 1 "U" 1 105456 1500 106961 "107168" "107168" 707 "<up>" "<up>" 1 1
"100-1-3" "T" 9 1 "U" 1 107890 3250 111148 "111356" "111356" 666 "<up>" "<up>" 1 1
"100-1-3" "T" 10 -1 "R" 1 112041 1750 113797 "114003" "114004" 612 "<right>" "<right>" 1 1
"100-1-3" "T" 11 -1 "D" 1 114629 3500 118135 "118341" "118342" 506 "<down>" "<down>" 1 1
"100-1-3" "T" 12 -1 "L" 2 118861 2750 121617 "121824" "121824" 473 "<left>" "<right>" 0 1
"100-1-3" "T" 13 -1 "R" 1 122313 2000 124318 "124526" "124526" 563 "<right>" "<right>" 1 1
"100-1-3" "T" 14 1 "L" 2 125102 2500 127607 "127813" "127814" 1666 "<left>" "<left>" 1 1
"100-1-3" "T" 15 1 "D" 1 129492 3500 132997 "133204" "133204" 680 "<down>" "<down>" 1 1
"100-1-3" "T" 16 -1 "U" 2 133893 3500 137399 "137608" "137608" 747 "<up>" "<up>" 1 1
"100-1-3" "T" 17 -1 "U" 1 138367 2250 140622 "140828" "140829" 746 "<up>" "<up>" 1 1
"100-1-3" "T" 18 1 "L" 2 141585 2750 144340 "144548" "144549" 882 "<left>" "<left>" 1 1
"100-1-3" "T" 19 -1 "U" 1 145445 1750 147201 "147408" "147408" 684 "<up>" "<up>" 1 1
"100-1-3" "T" 20 -1 "U" 2 148104 2750 150858 "151067" "151067" 723 "<up>" "<up>" 1 1
"100-1-3" "T" 21 1 "U" 1 151803 2500 154309 "154516" "154516" 626 "<up>" "<up>" 1 1
"100-1-3" "T" 22 -1 "D" 1 155168 2250 157424 "157631" "157631" 565 "<down>" "<down>" 1 1
"100-1-3" "T" 23 -1 "D" 2 158211 3250 161467 "161673" "161673" 640 "<down>" "<down>" 1 1
"100-1-3" "T" 24 -1 "D" 2 162328 1750 164083 "164289" "164290" 671 "<down>" "<down>" 1 1
"100-1-3" "T" 25 1 "L" 2 164973 2500 167479 "167685" "167686" 1302 "<left>" "<right>" 0 1
"100-1-3" "T" 26 1 "L" 2 169003 1500 170509 "170717" "170717" 600 "<left>" "<left>" 1 1
"100-1-3" "T" 27 1 "D" 1 171329 2000 173335 "173541" "173541" 598 "<down>" "<down>" 1 1
"100-1-3" "T" 28 1 "R" 2 174156 2250 176411 "176617" "176618" 644 "<right>" "<right>" 1 1
"100-1-3" "T" 29 1 "R" 1 177280 1750 179035 "179244" "179244" 514 "<right>" "<right>" 1 1
"100-1-3" "T" 30 1 "L" 1 179777 1500 181283 "181489" "181489" 540 "<left>" "<left>" 1 1
"100-1-3" "T" 31 -1 "L" 2 182045 3000 185051 "185257" "185257" 692 "<left>" "<left>" 1 1
"100-1-3" "T" 32 1 "D" 1 185961 2000 187967 "188174" "188174" 654 "<down>" "<down>" 1 1
"100-1-3" "T" 33 1 "L" 2 188841 3250 192097 "192304" "192304" 665 "<left>" "<left>" 1 1
"100-1-3" "T" 34 -1 "U" 1 192985 3500 196490 "196696" "196697" 755 "<up>" "<up>" 1 1
"100-1-3" "T" 35 -1 "R" 1 197462 2250 199717 "199924" "199924" 596 "<right>" "<right>" 1 1
"100-1-3" "T" 36 1 "U" 2 200538 2000 202544 "202751" "202751" 705 "<up>" "<up>" 1 1
"100-1-3" "T" 37 -1 "D" 2 203469 2500 205975 "206182" "206182" 687 "<down>" "<down>" 1 1
"100-1-3" "T" 38 -1 "L" 2 206885 2750 209641 "209847" "209848" 782 "<left>" "<right>" 0 1
"100-1-3" "T" 39 1 "U" 1 210642 2500 213147 "213353" "213354" 682 "<up>" "<up>" 1 1
"100-1-3" "T" 40 -1 "R" 1 214051 3250 217306 "217512" "217513" 645 "<right>" "<right>" 1 1
"100-1-3" "T" 41 1 "D" 1 218172 3500 221677 "221884" "221885" 631 "<down>" "<down>" 1 1
"100-1-3" "T" 42 -1 "U" 1 222526 2750 225282 "225490" "225491" 615 "<up>" "<up>" 1 1
"100-1-3" "T" 43 -1 "R" 2 226124 2750 228880 "229086" "229087" 673 "<right>" "<right>" 1 1
"100-1-3" "T" 44 -1 "U" 1 229774 1500 231280 "231486" "231487" 597 "<up>" "<up>" 1 1
"100-1-3" "T" 45 -1 "R" 2 232097 2750 234853 "235060" "235060" 661 "<right>" "<right>" 1 1
"100-1-3" "T" 46 1 "U" 1 235738 3000 238743 "238950" "238950" 589 "<up>" "<up>" 1 1
"100-1-3" "T" 47 1 "R" 2 239550 1750 241305 "241511" "241512" 782 "<right>" "<right>" 1 1
"100-1-3" "T" 48 -1 "D" 1 242310 2250 244565 "244771" "244771" 547 "<down>" "<down>" 1 1
"100-1-3" "T" 49 1 "D" 1 245336 3250 248591 "248797" "248798" 633 "<down>" "<down>" 1 1
"100-1-3" "T" 50 1 "D" 1 249455 3000 252460 "252666" "252666" 567 "<down>" "<down>" 1 1
"100-2-1" "P" 0 1 "R" 1 3775 2250 6031 "6539" "6540" 1235 "<right>" "<right>" 1 1
"100-2-1" "P" 0 -1 "D" 1 7792 1750 9551 "10057" "10058" 613 "<down>" "<down>" 1 1
"100-2-1" "P" 0 1 "D" 2 10694 1750 12451 "12958" "12959" 743 "<down>" "<down>" 1 1
"100-2-1" "P" 0 1 "R" 2 13722 3500 17229 "17738" "17739" 666 "<right>" "<right>" 1 1
"100-2-1" "P" 0 -1 "U" 2 18427 3000 21434 "21940" "21941" 598 "<up>" "<up>" 1 1
"100-2-1" "P" 0 -1 "R" 2 22555 2250 24814 "25321" "25322" 444 "<right>" "<right>" 1 1
"100-2-1" "P" 0 -1 "D" 2 25801 2500 28308 "28815" "28816" 556 "<down>" "<down>" 1 1
"100-2-1" "P" 0 -1 "L" 1 29404 1500 30911 "31419" "31419" 608 "<left>" "<left>" 1 1
"100-2-1" "P" 0 -1 "R" 2 35985 3000 38992 "39199" "39200" 633 "<right>" "<right>" 1 1
"100-2-1" "P" 0 1 "D" 1 39854 2250 42110 "42317" "42317" 600 "<down>" "<down>" 1 1
"100-2-1" "P" 0 -1 "L" 2 42937 2500 45443 "45650" "45650" 702 "<left>" "<left>" 1 1
"100-2-1" "P" 0 -1 "U" 2 46370 2750 49127 "49335" "49336" 645 "<up>" "<up>" 1 1
"100-2-1" "P" 0 1 "U" 1 49999 1750 51755 "51964" "51965" 555 "<up>" "<up>" 1 1
"100-2-1" "P" 0 -1 "U" 2 52538 2500 55044 "55251" "55252" 628 "<up>" "<up>" 1 1
"100-2-1" "P" 0 -1 "R" 2 55898 2500 58405 "58612" "58613" 808 "<right>" "<right>" 1 1
"100-2-1" "P" 0 1 "D" 2 59438 3000 62444 "62651" "62652" 688 "<down>" "<down>" 1 1
"100-2-1" "T" 1 -1 "R" 1 68154 2750 70910 "71118" "71119" 605 "<right>" "<right>" 1 1
"100-2-1" "T" 2 -1 "R" 1 71748 3250 75004 "75211" "75212" 575 "<right>" "<right>" 1 1
"100-2-1" "T" 3 1 "D" 2 75809 3250 79065 "79272" "79273" 692 "<down>" "<down>" 1 1
"100-2-1" "T" 4 1 "U" 2 79987 1750 81744 "81951" "81952" 674 "<up>" "<up>" 1 1
"100-2-1" "T" 5 1 "L" 2 82644 2250 84900 "85107" "85108" 589 "<left>" "<left>" 1 1
"100-2-1" "T" 6 -1 "U" 1 85717 2500 88224 "88431" "88432" 644 "<up>" "<up>" 1 1
"100-2-1" "T" 7 -1 "D" 2 89094 1500 90600 "90808" "90809" 692 "<down>" "<down>" 1 1
"100-2-1" "T" 8 -1 "L" 2 91522 3250 94779 "94987" "94987" 609 "<left>" "<left>" 1 1
"100-2-1" "T" 9 -1 "D" 1 95613 2750 98369 "98576" "98577" 565 "<down>" "<down>" 1 1
"100-2-1" "T" 10 1 "U" 1 99166 1500 100673 "100884" "100885" 509 "<up>" "<up>" 1 1
"100-2-1" "T" 11 -1 "D" 1 101415 3000 104422 "104630" "104630" 646 "<down>" "<down>" 1 1
"100-2-1" "T" 12 -1 "L" 1 105293 1500 106800 "107009" "107009" 520 "<left>" "<left>" 1 1
"100-2-1" "T" 13 -1 "L" 2 107546 3500 111054 "111261" "111262" 648 "<left>" "<left>" 1 1
"100-2-1" "T" 14 -1 "L" 2 111930 2750 114686 "114893" "114893" 581 "<left>" "<left>" 1 1
"100-2-1" "T" 15 -1 "R" 1 115500 3250 118756 "118965" "118966" 582 "<right>" "<right>" 1 1
"100-2-1" "T" 16 -1 "U" 1 119569 2250 121826 "122034" "122035" 564 "<up>" "<up>" 1 1
"100-2-1" "T" 17 1 "L" 1 122622 2000 124629 "124837" "124838" 598 "<left>" "<left>" 1 1
"100-2-1" "T" 18 -1 "D" 2 125452 3000 128460 "128667" "128668" 674 "<down>" "<down>" 1 1
"100-2-1" "T" 19 -1 "U" 1 129358 3500 132864 "133073" "133074" 582 "<up>" "<up>" 1 1
"100-2-1" "T" 20 -1 "L" 2 133677 1750 135434 "135642" "135643" 640 "<left>" "<left>" 1 1
"100-2-1" "T" 21 1 "R" 2 136308 2000 138314 "138522" "138523" 714 "<right>" "<right>" 1 1
"100-2-1" "T" 22 1 "R" 1 139258 2250 141515 "141723" "141724" 631 "<right>" "<right>" 1 1
"100-2-1" "T" 23 -1 "L" 1 142371 2250 144626 "144835" "144836" 544 "<left>" "<left>" 1 1
"100-2-1" "T" 24 1 "D" 2 145401 2500 147908 "148115" "148115" 753 "<down>" "<down>" 1 1
"100-2-1" "T" 25 -1 "D" 1 148885 2000 150891 "151100" "151101" 622 "<down>" "<down>" 1 1
"100-2-1" "T" 26 -1 "R" 2 151740 2500 154247 "154456" "154457" 648 "<right>" "<right>" 1 1
"100-2-1" "T" 27 1 "R" 2 155122 1750 156878 "157087" "157087" 673 "<right>" "<right>" 1 1
"100-2-1" "T" 28 1 "D" 1 157778 3500 161284 "161491" "161492" 605 "<down>" "<down>" 1 1
"100-2-1" "T" 29 -1 "D" 1 162114 1500 163620 "163827" "163827" 604 "<down>" "<down>" 1 1
"100-2-1" "T" 30 -1 "L" 1 164459 1750 166215 "166422" "166423" 547 "<left>" "<left>" 1 1
"100-2-1" "T" 31 -1 "D" 1 166994 3500 170500 "170708" "170709" 677 "<down>" "<down>" 1 1
"100-2-1" "T" 32 -1 "R" 2 171405 3250 174661 "174868" "174869" 784 "<right>" "<right>" 1 1
"100-2-1" "T" 33 1 "R" 2 175678 3500 179184 "179392" "179393" 650 "<right>" "<right>" 1 1
"100-2-1" "T" 34 -1 "R" 2 180058 1750 181814 "182022" "182023" 710 "<right>" "<right>" 1 1
"100-2-1" "T" 35 1 "L" 1 182753 2000 184759 "184968" "184969" 568 "<left>" "<left>" 1 1
"100-2-1" "T" 36 -1 "R" 2 185565 2250 187822 "188029" "188029" 670 "<right>" "<right>" 1 1
"100-2-1" "T" 37 1 "D" 1 188716 3250 191972 "192181" "192182" 581 "<down>" "<down>" 1 1
"100-2-1" "T" 38 1 "L" 2 192782 2500 195289 "195496" "195497" 647 "<left>" "<left>" 1 1
"100-2-1" "T" 39 1 "U" 1 196161 2750 198917 "199125" "199126" 666 "<up>" "<up>" 1 1
"100-2-1" "T" 40 1 "D" 2 199814 2750 202569 "202777" "202778" 645 "<down>" "<down>" 1 1
"100-2-1" "T" 41 1 "D" 1 203445 2000 205451 "205658" "205659" 621 "<down>" "<down>" 1 1
"100-2-1" "T" 42 1 "U" 1 206300 2500 208807 "209014" "209014" 608 "<up>" "<up>" 1 1
"100-2-1" "T" 43 1 "L" 2 209642 3250 212899 "213108" "213109" 595 "<left>" "<left>" 1 1
"100-2-1" "T" 44 -1 "L" 1 213719 3500 217226 "217433" "217434" 584 "<left>" "<left>" 1 1
"100-2-1" "T" 45 -1 "R" 1 218035 2250 220291 "220500" "220500" 710 "<right>" "<right>" 1 1
"100-2-1" "T" 46 1 "D" 1 221226 3250 224483 "224692" "224692" 621 "<down>" "<down>" 1 1
"100-2-1" "T" 47 -1 "L" 1 225338 2750 228094 "228302" "228303" 549 "<left>" "<left>" 1 1
"100-2-1" "T" 48 1 "D" 2 228875 2750 231632 "231841" "231841" 738 "<down>" "<down>" 1 1
"100-2-1" "T" 49 -1 "D" 1 232597 3500 236104 "236311" "236311" 570 "<down>" "<down>" 1 1
"100-2-1" "T" 50 1 "D" 1 236907 1750 238664 "238872" "238873" 567 "<down>" "<down>" 1 1
"100-2-2" "P" 0 -1 "L" 1 6753 2500 9260 "9768" "9769" 559 "<left>" "<left>" 1 1
"100-2-2" "P" 0 1 "L" 1 10351 2500 12859 "13366" "13367" 614 "<left>" "<left>" 1 1
"100-2-2" "P" 0 1 "D" 2 14007 2750 16764 "17270" "17271" 631 "<down>" "<down>" 1 1
"100-2-2" "P" 0 -1 "L" 2 17924 2500 20431 "20939" "20939" 610 "<left>" "<left>" 1 1
"100-2-2" "P" 0 1 "D" 2 21572 1500 23078 "23586" "23587" 664 "<down>" "<down>" 1 1
"100-2-2" "P" 0 -1 "D" 2 24278 1500 25784 "26292" "26293" 522 "<down>" "<down>" 1 1
"100-2-2" "P" 0 1 "D" 1 26851 3000 29859 "30367" "30368" 592 "<down>" "<down>" 1 1
"100-2-2" "P" 0 1 "R" 1 30988 3500 34495 "35002" "35003" 522 "<right>" "<right>" 1 1
"100-2-2" "P" 0 1 "L" 2 38608 1750 40364 "40573" "40573" 609 "<left>" "<left>" 1 1
"100-2-2" "P" 0 1 "U" 1 41199 2750 43955 "44159" "44159" 619 "<up>" "<up>" 1 1
"100-2-2" "P" 0 1 "U" 2 44800 3000 47807 "48015" "48015" 564 "<up>" "<up>" 1 1
"100-2-2" "P" 0 1 "L" 1 48599 3250 51856 "52063" "52064" 548 "<left>" "<left>" 1 1
"100-2-2" "P" 0 1 "U" 1 52634 2750 55390 "55598" "55599" 524 "<up>" "<up>" 1 1
"100-2-2" "P" 0 1 "R" 2 56143 2250 58399 "58608" "58608" 564 "<right>" "<right>" 1 1
"100-2-2" "P" 0 1 "L" 1 59188 1500 60694 "60902" "60903" 480 "<left>" "<left>" 1 1
"100-2-2" "P" 0 1 "R" 2 61404 3000 64410 "64618" "64619" 738 "<right>" "<right>" 1 1
"100-2-2" "T" 1 1 "U" 1 67790 3500 71297 "71505" "71506" 569 "<up>" "<up>" 1 1
"100-2-2" "T" 2 1 "L" 2 72089 1750 73846 "74053" "74053" 561 "<left>" "<left>" 1 1
"100-2-2" "T" 3 -1 "L" 1 74636 2000 76641 "76848" "76848" 559 "<left>" "<left>" 1 1
"100-2-2" "T" 4 1 "D" 1 77425 2250 79682 "79891" "79891" 601 "<down>" "<down>" 1 1
"100-2-2" "T" 5 1 "R" 2 80512 3500 84018 "84225" "84226" 602 "<right>" "<right>" 1 1
"100-2-2" "T" 6 1 "U" 2 84849 3250 88106 "88313" "88314" 797 "<up>" "<up>" 1 1
"100-2-2" "T" 7 -1 "L" 1 89130 3250 92387 "92594" "92595" 632 "<left>" "<left>" 1 1
"100-2-2" "T" 8 1 "R" 1 93246 3250 96503 "96711" "96711" 538 "<right>" "<left>" 0 1
"100-2-2" "T" 9 1 "U" 2 97264 3250 100521 "100728" "100729" 605 "<up>" "<up>" 1 1
"100-2-2" "T" 10 -1 "L" 2 101351 1750 103108 "103317" "103318" 752 "<left>" "<left>" 1 1
"100-2-2" "T" 11 1 "L" 2 104087 3500 107593 "107801" "107802" 635 "<left>" "<left>" 1 1
"100-2-2" "T" 12 1 "R" 2 108462 3000 111470 "111678" "111678" 581 "<right>" "<right>" 1 1
"100-2-2" "T" 13 -1 "D" 2 112279 1750 114036 "114243" "114244" 743 "<down>" "<down>" 1 1
"100-2-2" "T" 14 -1 "R" 2 115005 2000 117012 "117220" "117221" 596 "<right>" "<right>" 1 1
"100-2-2" "T" 15 1 "U" 1 117836 2000 119842 "120051" "120052" 612 "<up>" "<up>" 1 1
"100-2-2" "T" 16 1 "U" 1 120682 1750 122439 "122647" "122648" 667 "<up>" "<up>" 1 1
"100-2-2" "T" 17 -1 "R" 2 123331 3250 126587 "126796" "126796" 672 "<right>" "<right>" 1 1
"100-2-2" "T" 18 -1 "U" 2 127481 1750 129237 "129446" "129447" 623 "<up>" "<up>" 1 1
"100-2-2" "T" 19 -1 "D" 1 130089 2000 132096 "132304" "132305" 713 "<down>" "<down>" 1 1
"100-2-2" "T" 20 1 "U" 2 133036 3500 136543 "136751" "136752" 654 "<up>" "<up>" 1 1
"100-2-2" "T" 21 1 "R" 2 137425 3500 140931 "141138" "141139" 693 "<right>" "<right>" 1 1
"100-2-2" "T" 22 -1 "U" 1 141854 3500 145361 "145568" "145569" 774 "<up>" "<up>" 1 1
"100-2-2" "T" 23 -1 "R" 1 146360 2250 148616 "148825" "148826" 632 "<right>" "<right>" 1 1
"100-2-2" "T" 24 -1 "D" 1 149478 1500 150985 "151194" "151194" 795 "<down>" "<down>" 1 1
"100-2-2" "T" 25 -1 "R" 2 152005 1500 153511 "153720" "153721" 647 "<right>" "<right>" 1 1
"100-2-2" "T" 26 1 "D" 1 154392 1750 156147 "156354" "156355" 618 "<down>" "<down>" 1 1
"100-2-2" "T" 27 -1 "R" 1 156995 3250 160251 "160459" "160460" 556 "<right>" "<right>" 1 1
"100-2-2" "T" 28 -1 "D" 1 161036 3000 164042 "164249" "164249" 622 "<down>" "<down>" 1 1
"100-2-2" "T" 29 1 "D" 2 164895 2500 167401 "167610" "167611" 641 "<down>" "<down>" 1 1
"100-2-2" "T" 30 1 "L" 1 168268 3000 171274 "171483" "171483" 568 "<left>" "<left>" 1 1
"100-2-2" "T" 31 -1 "R" 1 172077 2250 174334 "174543" "174544" 611 "<right>" "<right>" 1 1
"100-2-2" "T" 32 1 "L" 2 175171 2000 177178 "177387" "177387" 630 "<left>" "<left>" 1 1
"100-2-2" "T" 33 1 "R" 2 178034 2250 180290 "180498" "180499" 542 "<right>" "<right>" 1 1
"100-2-2" "T" 34 -1 "L" 2 181063 1750 182820 "183027" "183028" 598 "<left>" "<left>" 1 1
"100-2-2" "T" 35 -1 "R" 1 183651 2250 185908 "186116" "186117" 627 "<right>" "<right>" 1 1
"100-2-2" "T" 36 -1 "R" 2 186760 1750 188517 "188726" "188727" 537 "<right>" "<right>" 1 1
"100-2-2" "T" 37 -1 "U" 1 189286 3250 192543 "192750" "192750" 622 "<up>" "<up>" 1 1
"100-2-2" "T" 38 -1 "L" 1 193397 1500 194903 "195110" "195111" 582 "<left>" "<left>" 1 1
"100-2-2" "T" 39 1 "D" 1 195712 2250 197968 "198177" "198178" 602 "<down>" "<down>" 1 1
"100-2-2" "T" 40 -1 "L" 2 198808 2250 201066 "201274" "201275" 612 "<left>" "<left>" 1 1
"100-2-2" "T" 41 -1 "L" 2 201905 3250 205161 "205368" "205369" 550 "<left>" "<left>" 1 1
"100-2-2" "T" 42 -1 "L" 2 205936 3500 209443 "209650" "209651" 484 "<left>" "<left>" 1 1
"100-2-2" "T" 43 1 "D" 1 210149 2750 212905 "213112" "213113" 540 "<down>" "<down>" 1 1
"100-2-2" "T" 44 -1 "D" 1 213675 3250 216931 "217139" "217140" 546 "<down>" "<down>" 1 1
"100-2-2" "T" 45 1 "D" 2 217713 1500 219218 "219425" "219426" 609 "<down>" "<down>" 1 1
"100-2-2" "T" 46 -1 "D" 1 220052 3000 223059 "223266" "223267" 717 "<down>" "<down>" 1 1
"100-2-2" "T" 47 -1 "U" 2 224000 3250 227256 "227465" "227465" 643 "<up>" "<up>" 1 1
"100-2-2" "T" 48 -1 "R" 1 228129 2000 230135 "230343" "230343" 568 "<right>" "<right>" 1 1
"100-2-2" "T" 49 1 "R" 1 230932 3000 233938 "234146" "234147" 562 "<right>" "<right>" 1 1
"100-2-2" "T" 50 1 "R" 2 234736 2250 236993 "237201" "237201" 516 "<right>" "<right>" 1 1
"100-2-3" "P" 0 -1 "R" 2 3507 3250 6764 "7272" "7272" 1739 "<right>" "<right>" 1 1
"100-2-3" "P" 0 1 "D" 2 9026 1500 10532 "11039" "11040" 762 "<down>" "<down>" 1 1
"100-2-3" "P" 0 1 "D" 1 11823 3000 14830 "15338" "15338" 538 "<down>" "<down>" 1 1
"100-2-3" "P" 0 -1 "L" 1 15906 1500 17413 "17920" "17921" 494 "<left>" "<left>" 1 1
"100-2-3" "P" 0 -1 "D" 1 18450 1500 19957 "20464" "20465" 590 "<down>" "<down>" 1 1
"100-2-3" "P" 0 -1 "U" 2 21086 1500 22593 "23101" "23102" 606 "<up>" "<up>" 1 1
"100-2-3" "P" 0 -1 "R" 1 23730 2500 26237 "26745" "26746" 524 "<right>" "<right>" 1 1
"100-2-3" "P" 0 1 "R" 2 27305 1500 28811 "29320" "29320" 648 "<right>" "<right>" 1 1
"100-2-3" "P" 0 -1 "L" 1 32900 3000 35907 "36116" "36117" 585 "<left>" "<left>" 1 1
"100-2-3" "P" 0 -1 "D" 2 36737 2750 39494 "39702" "39703" 609 "<down>" "<down>" 1 1
"100-2-3" "P" 0 1 "L" 1 40338 3250 43594 "43803" "43803" 552 "<left>" "<left>" 1 1
"100-2-3" "P" 0 -1 "D" 1 44383 3000 47390 "47598" "47598" 623 "<down>" "<down>" 1 1
"100-2-3" "P" 0 1 "R" 1 48238 1500 49744 "49951" "49952" 684 "<right>" "<right>" 1 1
"100-2-3" "P" 0 1 "U" 2 50660 1500 52168 "52376" "52377" 610 "<up>" "<up>" 1 1
"100-2-3" "P" 0 -1 "U" 2 53005 2500 55512 "55721" "55721" 573 "<up>" "<up>" 1 1
"100-2-3" "P" 0 -1 "U" 1 56312 1750 58069 "58276" "58277" 590 "<up>" "<up>" 1 1
"100-2-3" "T" 1 1 "D" 1 62050 3250 65306 "65514" "65514" 603 "<down>" "<down>" 1 1
"100-2-3" "T" 2 -1 "R" 2 66133 3000 69139 "69348" "69348" 574 "<right>" "<right>" 1 1
"100-2-3" "T" 3 1 "L" 1 69938 1750 71695 "71903" "71904" 538 "<left>" "<left>" 1 1
"100-2-3" "T" 4 1 "R" 1 72459 3250 75716 "75923" "75924" 535 "<right>" "<right>" 1 1
"100-2-3" "T" 5 -1 "U" 2 76480 2750 79236 "79444" "79445" 662 "<up>" "<up>" 1 1
"100-2-3" "T" 6 -1 "D" 2 80122 2750 82879 "83086" "83087" 659 "<down>" "<down>" 1 1
"100-2-3" "T" 7 1 "U" 1 83771 1500 85278 "85486" "85486" 665 "<up>" "<up>" 1 1
"100-2-3" "T" 8 -1 "U" 2 86166 2500 88673 "88880" "88881" 571 "<up>" "<up>" 1 1
"100-2-3" "T" 9 -1 "L" 2 89469 2250 91724 "91932" "91932" 607 "<left>" "<left>" 1 1
"100-2-3" "T" 10 -1 "L" 2 92552 1500 94058 "94266" "94266" 665 "<left>" "<left>" 1 1
"100-2-3" "T" 11 1 "D" 1 94946 2500 97452 "97661" "97662" 585 "<down>" "<down>" 1 1
"100-2-3" "T" 12 -1 "U" 1 98266 2250 100522 "100731" "100732" 593 "<up>" "<up>" 1 1
"100-2-3" "T" 13 -1 "U" 2 101340 2000 103347 "103554" "103555" 505 "<up>" "<up>" 1 1
"100-2-3" "T" 14 -1 "L" 2 104073 3000 107081 "107291" "107292" 610 "<left>" "<left>" 1 1
"100-2-3" "T" 15 -1 "U" 2 107919 3250 111176 "111383" "111384" 510 "<up>" "<up>" 1 1
"100-2-3" "T" 16 -1 "U" 1 111913 2750 114669 "114876" "114876" 513 "<up>" "<up>" 1 1
"100-2-3" "T" 17 1 "L" 2 115404 3000 118412 "118622" "118622" 640 "<left>" "<left>" 1 1
"100-2-3" "T" 18 1 "D" 2 119282 3250 122539 "122746" "122747" 682 "<down>" "<down>" 1 1
"100-2-3" "T" 19 1 "L" 1 123444 3250 126701 "126909" "126909" 504 "<left>" "<left>" 1 1
"100-2-3" "T" 20 1 "R" 2 127435 1750 129191 "129399" "129400" 623 "<right>" "<right>" 1 1
"100-2-3" "T" 21 1 "R" 2 130039 1750 131796 "132006" "132006" 543 "<right>" "<right>" 1 1
"100-2-3" "T" 22 1 "L" 2 132570 3000 135576 "135784" "135785" 616 "<left>" "<left>" 1 1
"100-2-3" "T" 23 -1 "D" 1 136421 2750 139177 "139385" "139385" 577 "<down>" "<down>" 1 1
"100-2-3" "T" 24 -1 "U" 1 139985 1750 141741 "141950" "141951" 493 "<up>" "<up>" 1 1
"100-2-3" "T" 25 -1 "L" 2 142471 3250 145727 "145934" "145934" 571 "<left>" "<left>" 1 1
"100-2-3" "T" 26 1 "L" 2 146520 2500 149026 "149234" "149234" 591 "<left>" "<left>" 1 1
"100-2-3" "T" 27 1 "R" 1 149844 2750 152600 "152806" "152807" 631 "<right>" "<right>" 1 1
"100-2-3" "T" 28 1 "U" 1 153459 1750 155216 "155424" "155424" 621 "<up>" "<up>" 1 1
"100-2-3" "T" 29 1 "R" 2 156072 2000 158078 "158286" "158287" 510 "<right>" "<right>" 1 1
"100-2-3" "T" 30 -1 "R" 1 158819 2500 161327 "161534" "161535" 539 "<right>" "<right>" 1 1
"100-2-3" "T" 31 -1 "U" 2 162097 3500 165605 "165813" "165814" 637 "<up>" "<up>" 1 1
"100-2-3" "T" 32 -1 "U" 2 166477 2750 169235 "169444" "169445" 537 "<up>" "<up>" 1 1
"100-2-3" "T" 33 -1 "U" 2 170004 3500 173510 "173717" "173718" 641 "<up>" "<up>" 1 1
"100-2-3" "T" 34 -1 "R" 1 174383 2500 176889 "177098" "177098" 532 "<right>" "<right>" 1 1
"100-2-3" "T" 35 -1 "R" 1 177650 3250 180906 "181113" "181114" 477 "<right>" "<right>" 1 1
"100-2-3" "T" 36 1 "U" 2 181614 1750 183372 "183579" "183580" 580 "<up>" "<up>" 1 1
"100-2-3" "T" 37 1 "L" 1 184190 2750 186947 "187155" "187155" 650 "<left>" "<left>" 1 1
"100-2-3" "T" 38 1 "U" 1 187821 1750 189577 "189784" "189784" 487 "<up>" "<up>" 1 1
"100-2-3" "T" 39 1 "R" 2 190304 3500 193810 "194018" "194019" 690 "<right>" "<right>" 1 1
"100-2-3" "T" 40 1 "U" 2 194728 2750 197485 "197693" "197694" 579 "<up>" "<up>" 1 1
"100-2-3" "T" 41 -1 "U" 1 198293 3250 201550 "201757" "201758" 519 "<up>" "<up>" 1 1
"100-2-3" "T" 42 -1 "R" 2 202302 3250 205559 "205766" "205767" 566 "<right>" "<right>" 1 1
"100-2-3" "T" 43 1 "R" 2 206351 3250 209607 "209816" "209817" 631 "<right>" "<right>" 1 1
"100-2-3" "T" 44 -1 "R" 1 210466 2500 212972 "213180" "213181" 539 "<right>" "<right>" 1 1
"100-2-3" "T" 45 -1 "U" 2 213739 1750 215496 "215705" "215706" 604 "<up>" "<up>" 1 1
"100-2-3" "T" 46 1 "L" 1 216337 2500 218844 "219053" "219054" 468 "<left>" "<right>" 0 1
"100-2-3" "T" 47 -1 "R" 1 219542 2250 221799 "222006" "222006" 630 "<right>" "<right>" 1 1
"100-2-3" "T" 48 1 "U" 2 222660 2000 224667 "224874" "224875" 836 "<up>" "<up>" 1 1
"100-2-3" "T" 49 1 "L" 1 225724 2750 228481 "228689" "228690" 614 "<left>" "<left>" 1 1
"100-2-3" "T" 50 -1 "L" 1 229320 2250 231576 "231783" "231783" 641 "<left>" "<left>" 1 1
"100-2-4" "P" 0 -1 "D" 1 4921 2750 7678 "8186" "8187" 874 "<down>" "<down>" 1 1
"100-2-4" "P" 0 -1 "U" 1 9081 2000 11088 "11596" "11597" 401 "<up>" "<up>" 1 1
"100-2-4" "P" 0 1 "D" 2 12030 2250 14287 "14795" "14796" 579 "<down>" "<down>" 1 1
"100-2-4" "P" 0 -1 "U" 2 15399 3250 18655 "19163" "19164" 426 "<up>" "<up>" 1 1
"100-2-4" "P" 0 -1 "D" 1 19623 3500 23129 "23638" "23639" 488 "<down>" "<down>" 1 1
"100-2-4" "P" 0 1 "L" 1 24161 2250 26417 "26925" "26926" 417 "<left>" "<left>" 1 1
"100-2-4" "P" 0 -1 "L" 2 27378 3500 30884 "31391" "31391" 614 "<left>" "<left>" 1 1
"100-2-4" "P" 0 -1 "L" 1 32028 2500 34535 "35043" "35044" 468 "<left>" "<left>" 1 1
"100-2-4" "P" 0 -1 "L" 2 37849 1500 39355 "39563" "39564" 573 "<left>" "<left>" 1 1
"100-2-4" "P" 0 -1 "R" 1 40162 2500 42669 "42875" "42876" 532 "<right>" "<right>" 1 1
"100-2-4" "P" 0 1 "D" 1 43432 3500 46938 "47145" "47146" 610 "<down>" "<down>" 1 1
"100-2-4" "P" 0 1 "D" 2 47782 1500 49289 "49497" "49498" 673 "<down>" "<down>" 1 1
"100-2-4" "P" 0 1 "D" 2 50186 3000 53192 "53400" "53401" 577 "<down>" "<down>" 1 1
"100-2-4" "P" 0 -1 "L" 1 54001 3250 57257 "57464" "57465" 567 "<left>" "<left>" 1 1
"100-2-4" "P" 0 1 "L" 1 58057 2250 60313 "60521" "60521" 731 "<left>" "<left>" 1 1
"100-2-4" "P" 0 1 "D" 1 61273 1500 62779 "62986" "62987" 570 "<down>" "<down>" 1 1
"100-2-4" "T" 1 -1 "R" 2 65416 2000 67422 "67629" "67630" 682 "<right>" "<right>" 1 1
"100-2-4" "T" 2 -1 "D" 2 68330 1750 70087 "70294" "70295" 656 "<down>" "<down>" 1 1
"100-2-4" "T" 3 1 "D" 2 70975 3500 74482 "74690" "74691" 752 "<down>" "<down>" 1 1
"100-2-4" "T" 4 -1 "D" 1 75463 3250 78719 "78926" "78927" 669 "<down>" "<down>" 1 1
"100-2-4" "T" 5 -1 "R" 1 79617 1750 81374 "81580" "81581" 648 "<right>" "<right>" 1 1
"100-2-4" "T" 6 1 "R" 2 82248 1750 84004 "84211" "84212" 637 "<right>" "<right>" 1 1
"100-2-4" "T" 7 -1 "L" 2 84868 2500 87374 "87581" "87582" 664 "<left>" "<left>" 1 1
"100-2-4" "T" 8 -1 "L" 1 88273 3500 91780 "91987" "91988" 644 "<left>" "<left>" 1 1
"100-2-4" "T" 9 -1 "L" 1 92650 1750 94407 "94616" "94617" 546 "<left>" "<left>" 1 1
"100-2-4" "T" 10 1 "D" 1 95185 1500 96690 "96899" "96900" 595 "<down>" "<down>" 1 1
"100-2-4" "T" 11 1 "L" 1 97514 2250 99769 "99977" "99978" 527 "<left>" "<left>" 1 1
"100-2-4" "T" 12 1 "D" 2 100528 2750 103283 "103492" "103493" 712 "<down>" "<down>" 1 1
"100-2-4" "T" 13 -1 "L" 2 104229 2000 106236 "106443" "106443" 590 "<left>" "<left>" 1 1
"100-2-4" "T" 14 1 "D" 1 107055 3250 110311 "110518" "110519" 626 "<down>" "<down>" 1 1
"100-2-4" "T" 15 -1 "U" 1 111171 2750 113927 "114135" "114136" 693 "<up>" "<up>" 1 1
"100-2-4" "T" 16 1 "U" 1 114849 1500 116355 "116564" "116564" 642 "<up>" "<up>" 1 1
"100-2-4" "T" 17 -1 "D" 2 117221 2250 119476 "119685" "119686" 772 "<down>" "<down>" 1 1
"100-2-4" "T" 18 1 "R" 1 120478 3000 123486 "123695" "123695" 596 "<right>" "<right>" 1 1
"100-2-4" "T" 19 1 "L" 1 124318 3500 127824 "128031" "128031" 596 "<left>" "<left>" 1 1
"100-2-4" "T" 20 1 "L" 1 128647 2750 131404 "131611" "131611" 494 "<left>" "<left>" 1 1
"100-2-4" "T" 21 -1 "L" 2 132127 3250 135384 "135591" "135591" 661 "<left>" "<left>" 1 1
"100-2-4" "T" 22 -1 "L" 2 136275 1750 138031 "138239" "138240" 574 "<left>" "<left>" 1 1
"100-2-4" "T" 23 1 "U" 2 138833 1500 140338 "140546" "140546" 672 "<up>" "<up>" 1 1
"100-2-4" "T" 24 1 "D" 2 141247 2250 143503 "143711" "143712" 665 "<down>" "<down>" 1 1
"100-2-4" "T" 25 1 "U" 2 144408 2250 146664 "146871" "146872" 693 "<up>" "<up>" 1 1
"100-2-4" "T" 26 -1 "U" 1 147588 3500 151094 "151303" "151304" 657 "<up>" "<up>" 1 1
"100-2-4" "T" 27 1 "R" 1 151982 2500 154489 "154696" "154697" 581 "<right>" "<right>" 1 1
"100-2-4" "T" 28 1 "D" 1 155306 3250 158562 "158769" "158769" 688 "<down>" "<down>" 1 1
"100-2-4" "T" 29 1 "R" 2 159473 1750 161229 "161437" "161438" 573 "<right>" "<right>" 1 1
"100-2-4" "T" 30 -1 "D" 1 162030 3000 165037 "165244" "165245" 653 "<down>" "<down>" 1 1
"100-2-4" "T" 31 -1 "R" 1 165921 1500 167426 "167635" "167635" 519 "<right>" "<right>" 1 1
"100-2-4" "T" 32 1 "U" 1 168179 2500 170685 "170894" "170894" 533 "<up>" "<up>" 1 1
"100-2-4" "T" 33 1 "U" 1 171459 1750 173215 "173423" "173423" 584 "<up>" "<up>" 1 1
"100-2-4" "T" 34 -1 "D" 1 174024 1500 175531 "175739" "175740" 588 "<down>" "<down>" 1 1
"100-2-4" "T" 35 -1 "L" 2 176360 2250 178616 "178824" "178825" 624 "<left>" "<left>" 1 1
"100-2-4" "T" 36 1 "D" 2 179471 1750 181227 "181435" "181436" 704 "<down>" "<down>" 1 1
"100-2-4" "T" 37 -1 "R" 1 182159 3250 185416 "185622" "185623" 548 "<right>" "<right>" 1 1
"100-2-4" "T" 38 -1 "U" 2 186194 2250 188451 "188660" "188661" 1534 "<up>" "<down>" 0 1
"100-2-4" "T" 39 1 "D" 1 190210 2750 192967 "193175" "193176" 678 "<down>" "<down>" 1 1
"100-2-4" "T" 40 -1 "L" 2 193874 2000 195879 "196087" "196088" 616 "<left>" "<left>" 1 1
"100-2-4" "T" 41 1 "L" 1 196731 3000 199738 "199945" "199945" 603 "<left>" "<left>" 1 1
"100-2-4" "T" 42 -1 "D" 2 200574 2750 203331 "203538" "203538" 698 "<down>" "<down>" 1 1
"100-2-4" "T" 43 -1 "L" 2 204256 2750 207012 "207219" "207219" 564 "<left>" "<left>" 1 1
"100-2-4" "T" 44 -1 "D" 1 207803 2500 210310 "210516" "210517" 568 "<down>" "<down>" 1 1
"100-2-4" "T" 45 1 "L" 2 211102 1750 212859 "213067" "213068" 525 "<left>" "<left>" 1 1
"100-2-4" "T" 46 -1 "D" 1 213616 2500 216123 "216331" "216332" 576 "<down>" "<down>" 1 1
"100-2-4" "T" 47 -1 "R" 1 216928 3250 220184 "220391" "220392" 541 "<right>" "<right>" 1 1
"100-2-4" "T" 48 1 "R" 1 220952 1750 222708 "222916" "222917" 582 "<right>" "<right>" 1 1
"100-2-4" "T" 49 1 "R" 2 223524 2750 226281 "226488" "226488" 539 "<right>" "<right>" 1 1
"100-2-4" "T" 50 1 "L" 2 227047 3250 230303 "230510" "230511" 727 "<left>" "<left>" 1 1
"100-3-1" "P" 0 -1 "U" 2 4871 3000 7877 "8382" "8383" 639 "<up>" "<up>" 1 1
"100-3-1" "P" 0 -1 "U" 2 9033 3000 12039 "12546" "12546" 490 "<up>" "<up>" 1 1
"100-3-1" "P" 0 -1 "D" 1 13060 1500 14564 "15069" "15069" 511 "<down>" "<down>" 1 1
"100-3-1" "P" 0 -1 "U" 1 15607 2750 18362 "18867" "18868" 498 "<up>" "<up>" 1 1
"100-3-1" "P" 0 1 "D" 2 19388 2750 22144 "22650" "22650" 627 "<down>" "<down>" 1 1
"100-3-1" "P" 0 -1 "D" 2 23288 2250 25544 "26051" "26052" 495 "<down>" "<down>" 1 1
"100-3-1" "P" 0 1 "R" 1 26571 2250 28827 "29333" "29333" 560 "<right>" "<right>" 1 1
"100-3-1" "P" 0 -1 "U" 1 29921 1750 31676 "32181" "32182" 440 "<up>" "<up>" 1 1
"100-3-1" "P" 0 -1 "L" 2 35052 3500 38556 "38763" "38763" 590 "<left>" "<left>" 1 1
"100-3-1" "P" 0 -1 "L" 2 39366 1500 40872 "41079" "41079" 606 "<left>" "<left>" 1 1
"100-3-1" "P" 0 1 "U" 1 41696 3500 45201 "45408" "45408" 524 "<up>" "<up>" 1 1
"100-3-1" "P" 0 1 "D" 1 45943 1500 47448 "47655" "47655" 636 "<down>" "<down>" 1 1
"100-3-1" "P" 0 -1 "R" 2 48302 2250 50558 "50765" "50765" 616 "<right>" "<right>" 1 1
"100-3-1" "P" 0 -1 "U" 1 51390 2000 53395 "53602" "53602" 494 "<up>" "<up>" 1 1
"100-3-1" "P" 0 -1 "L" 2 54105 3500 57610 "57818" "57819" 641 "<left>" "<left>" 1 1
"100-3-1" "P" 0 -1 "U" 2 58471 2750 61226 "61431" "61432" 558 "<up>" "<up>" 1 1
"100-3-1" "T" 1 -1 "R" 2 64606 3250 67861 "68067" "68068" 725 "<right>" "<right>" 1 1
"100-3-1" "T" 2 1 "U" 2 68803 1750 70559 "70766" "70766" 580 "<up>" "<up>" 1 1
"100-3-1" "T" 3 -1 "D" 2 71358 3250 74613 "74819" "74819" 664 "<down>" "<down>" 1 1
"100-3-1" "T" 4 1 "U" 1 75493 2500 77999 "78205" "78206" 500 "<up>" "<up>" 1 1
"100-3-1" "T" 5 -1 "L" 2 78717 3000 81722 "81928" "81928" 608 "<left>" "<left>" 1 1
"100-3-1" "T" 6 -1 "U" 1 82548 2750 85303 "85510" "85510" 430 "<up>" "<up>" 1 1
"100-3-1" "T" 7 -1 "D" 1 85949 2250 88204 "88411" "88412" 568 "<down>" "<down>" 1 1
"100-3-1" "T" 8 -1 "R" 2 88992 2000 90996 "91201" "91202" 656 "<right>" "<right>" 1 1
"100-3-1" "T" 9 -1 "D" 2 91869 2250 94124 "94331" "94331" 687 "<down>" "<down>" 1 1
"100-3-1" "T" 10 -1 "R" 2 95030 1500 96536 "96743" "96744" 559 "<right>" "<right>" 1 1
"100-3-1" "T" 11 -1 "L" 2 97313 2250 99569 "99776" "99776" 639 "<left>" "<left>" 1 1
"100-3-1" "T" 12 1 "L" 2 100426 2250 102680 "102886" "102887" 699 "<left>" "<left>" 1 1
"100-3-1" "T" 13 -1 "U" 1 103594 3250 106849 "107055" "107055" 551 "<up>" "<up>" 1 1
"100-3-1" "T" 14 -1 "U" 2 107617 2750 110373 "110580" "110581" 650 "<up>" "<up>" 1 1
"100-3-1" "T" 15 1 "U" 1 111243 2750 113999 "114204" "114204" 600 "<up>" "<up>" 1 1
"100-3-1" "T" 16 -1 "R" 2 114814 2000 116820 "117027" "117028" 613 "<right>" "<right>" 1 1
"100-3-1" "T" 17 -1 "D" 1 117653 3250 120909 "121114" "121115" 630 "<down>" "<down>" 1 1
"100-3-1" "T" 18 1 "U" 1 121756 3500 125262 "125468" "125468" 531 "<up>" "<up>" 1 1
"100-3-1" "T" 19 -1 "U" 1 126010 2000 128015 "128223" "128223" 491 "<up>" "<up>" 1 1
"100-3-1" "T" 20 1 "U" 1 128725 2250 130979 "131184" "131185" 545 "<up>" "<up>" 1 1
"100-3-1" "T" 21 1 "U" 2 131741 2500 134247 "134454" "134455" 556 "<up>" "<up>" 1 1
"100-3-1" "T" 22 1 "L" 2 135022 3000 138027 "138233" "138233" 573 "<left>" "<left>" 1 1
"100-3-1" "T" 23 -1 "L" 2 138816 3500 142322 "142528" "142529" 642 "<left>" "<left>" 1 1
"100-3-1" "T" 24 -1 "D" 1 143181 2000 145186 "145392" "145393" 592 "<down>" "<down>" 1 1
"100-3-1" "T" 25 -1 "R" 2 145995 2000 148000 "148207" "148208" 619 "<right>" "<right>" 1 1
"100-3-1" "T" 26 1 "D" 1 148837 1750 150592 "150799" "150799" 599 "<down>" "<down>" 1 1
"100-3-1" "T" 27 -1 "D" 2 151408 2250 153664 "153871" "153871" 643 "<down>" "<down>" 1 1
"100-3-1" "T" 28 1 "R" 1 154527 1500 156033 "156239" "156240" 597 "<right>" "<right>" 1 1
"100-3-1" "T" 29 1 "R" 2 156848 2000 158852 "159060" "159060" 536 "<right>" "<right>" 1 1
"100-3-1" "T" 30 1 "U" 1 159608 2250 161864 "162071" "162071" 474 "<up>" "<up>" 1 1
"100-3-1" "T" 31 -1 "D" 1 162557 2000 164562 "164769" "164769" 565 "<down>" "<down>" 1 1
"100-3-1" "T" 32 1 "L" 1 165344 2250 167600 "167806" "167806" 563 "<left>" "<left>" 1 1
"100-3-1" "T" 33 1 "D" 1 168380 1500 169885 "170092" "170093" 573 "<down>" "<down>" 1 1
"100-3-1" "T" 34 -1 "R" 2 170678 3000 173683 "173890" "173890" 642 "<right>" "<right>" 1 1
"100-3-1" "T" 35 -1 "R" 1 174544 3000 177549 "177755" "177756" 720 "<right>" "<right>" 1 1
"100-3-1" "T" 36 1 "U" 1 178487 2500 180993 "181199" "181200" 605 "<up>" "<up>" 1 1
"100-3-1" "T" 37 -1 "R" 1 181816 2750 184572 "184778" "184779" 471 "<right>" "<right>" 1 1
"100-3-1" "T" 38 -1 "D" 1 185261 3000 188266 "188472" "188472" 730 "<down>" "<down>" 1 1
"100-3-1" "T" 39 -1 "D" 2 189212 3500 192718 "192924" "192925" 634 "<down>" "<down>" 1 1
"100-3-1" "T" 40 1 "R" 1 193575 1500 195079 "195282" "195282" 556 "<right>" "<right>" 1 1
"100-3-1" "T" 41 1 "L" 1 195850 3500 199355 "199561" "199562" 538 "<left>" "<left>" 1 1
"100-3-1" "T" 42 1 "L" 1 200111 2500 202617 "202824" "202824" 509 "<left>" "<left>" 1 1
"100-3-1" "T" 43 1 "D" 1 203344 3000 206350 "206556" "206556" 583 "<down>" "<down>" 1 1
"100-3-1" "T" 44 1 "U" 1 207151 3000 210156 "210361" "210362" 575 "<up>" "<up>" 1 1
"100-3-1" "T" 45 1 "R" 1 210947 2000 212953 "213160" "213160" 547 "<right>" "<right>" 1 1
"100-3-1" "T" 46 -1 "U" 2 213716 1750 215470 "215675" "215676" 747 "<up>" "<up>" 1 1
"100-3-1" "T" 47 -1 "R" 1 216432 3000 219437 "219642" "219643" 584 "<right>" "<right>" 1 1
"100-3-1" "T" 48 -1 "L" 1 220237 2500 222743 "222949" "222950" 557 "<left>" "<left>" 1 1
"100-3-1" "T" 49 -1 "U" 1 223518 2500 226023 "226230" "226231" 529 "<up>" "<up>" 1 1
"100-3-1" "T" 50 -1 "L" 2 226769 1750 228524 "228732" "228732" 637 "<left>" "<left>" 1 1
"100-3-2" "P" 0 -1 "R" 1 2684 1500 4190 "4695" "4696" 516 "<right>" "<right>" 1 1
"100-3-2" "P" 0 1 "R" 2 5235 1500 6741 "7247" "7248" 520 "<right>" "<right>" 1 1
"100-3-2" "P" 0 -1 "D" 2 7791 2750 10546 "11053" "11053" 557 "<down>" "<down>" 1 1
"100-3-2" "P" 0 1 "D" 1 11624 2000 13629 "14134" "14135" 541 "<down>" "<down>" 1 1
"100-3-2" "P" 0 -1 "U" 2 14705 2750 17461 "17967" "17968" 459 "<up>" "<up>" 1 1
"100-3-2" "P" 0 -1 "R" 2 18449 2250 20705 "21211" "21212" 464 "<right>" "<right>" 1 1
"100-3-2" "P" 0 1 "L" 2 21698 3250 24952 "25457" "25457" 494 "<left>" "<right>" 0 1
"100-3-2" "P" 0 1 "U" 1 25975 2750 28730 "29237" "29237" 533 "<up>" "<up>" 1 1
"100-3-2" "P" 0 1 "R" 2 32456 1500 33962 "34167" "34168" 582 "<right>" "<right>" 1 1
"100-3-2" "P" 0 -1 "R" 1 34763 3250 38017 "38222" "38223" 694 "<right>" "<right>" 1 1
"100-3-2" "P" 0 1 "R" 2 38934 1750 40689 "40894" "40895" 667 "<right>" "<right>" 1 1
"100-3-2" "P" 0 -1 "R" 1 41574 2250 43830 "44037" "44037" 511 "<right>" "<right>" 1 1
"100-3-2" "P" 0 -1 "L" 2 44565 2000 46570 "46775" "46776" 761 "<left>" "<left>" 1 1
"100-3-2" "P" 0 1 "R" 2 47549 1750 49305 "49511" "49511" 712 "<right>" "<right>" 1 1
"100-3-2" "P" 0 -1 "D" 1 50242 3500 53747 "53954" "53954" 575 "<down>" "<down>" 1 1
"100-3-2" "P" 0 -1 "L" 1 54540 3500 58044 "58251" "58252" 636 "<left>" "<left>" 1 1
"100-3-2" "T" 1 1 "L" 2 63755 2250 66010 "66216" "66216" 607 "<left>" "<left>" 1 1
"100-3-2" "T" 2 1 "D" 1 66839 3000 69844 "70051" "70051" 594 "<down>" "<down>" 1 1
"100-3-2" "T" 3 -1 "D" 2 70664 2750 73419 "73625" "73626" 675 "<down>" "<down>" 1 1
"100-3-2" "T" 4 -1 "L" 2 74324 1750 76079 "76284" "76285" 614 "<left>" "<left>" 1 1
"100-3-2" "T" 5 -1 "L" 2 76915 1750 78672 "78879" "78879" 619 "<left>" "<left>" 1 1
"100-3-2" "T" 6 1 "L" 2 79517 2500 82022 "82230" "82230" 639 "<left>" "<left>" 1 1
"100-3-2" "T" 7 1 "U" 1 82879 3250 86134 "86340" "86341" 597 "<up>" "<up>" 1 1
"100-3-2" "T" 8 -1 "R" 1 86951 3500 90456 "90662" "90662" 617 "<right>" "<right>" 1 1
"100-3-2" "T" 9 1 "L" 2 91302 2500 93807 "94013" "94013" 571 "<left>" "<left>" 1 1
"100-3-2" "T" 10 -1 "R" 1 94596 2250 96851 "97059" "97059" 577 "<right>" "<right>" 1 1
"100-3-2" "T" 11 1 "R" 2 97645 1500 99150 "99355" "99355" 570 "<right>" "<right>" 1 1
"100-3-2" "T" 12 -1 "L" 2 99936 1500 101440 "101645" "101646" 579 "<left>" "<left>" 1 1
"100-3-2" "T" 13 1 "R" 1 102240 1750 103994 "104200" "104200" 571 "<right>" "<right>" 1 1
"100-3-2" "T" 14 1 "U" 1 104782 3500 108286 "108493" "108494" 492 "<up>" "<up>" 1 1
"100-3-2" "T" 15 1 "D" 1 109008 2250 111263 "111470" "111471" 572 "<down>" "<down>" 1 1
"100-3-2" "T" 16 -1 "D" 1 112060 2750 114815 "115020" "115021" 574 "<down>" "<down>" 1 1
"100-3-2" "T" 17 1 "R" 1 115607 3500 119113 "119319" "119320" 534 "<right>" "<right>" 1 1
"100-3-2" "T" 18 1 "R" 2 119869 1500 121375 "121582" "121582" 561 "<right>" "<right>" 1 1
"100-3-2" "T" 19 -1 "R" 2 122159 3250 125414 "125620" "125621" 671 "<right>" "<right>" 1 1
"100-3-2" "T" 20 1 "D" 1 126315 2750 129071 "129278" "129278" 578 "<down>" "<down>" 1 1
"100-3-2" "T" 21 -1 "D" 2 129872 2750 132628 "132835" "132835" 671 "<down>" "<down>" 1 1
"100-3-2" "T" 22 1 "D" 1 133518 3250 136774 "136977" "136978" 571 "<down>" "<down>" 1 1
"100-3-2" "T" 23 -1 "U" 2 137559 2500 140064 "140271" "140272" 658 "<up>" "<up>" 1 1
"100-3-2" "T" 24 1 "L" 2 140942 3000 143946 "144153" "144154" 701 "<left>" "<left>" 1 1
"100-3-2" "T" 25 -1 "D" 2 144867 2500 147372 "147578" "147578" 642 "<down>" "<down>" 1 1
"100-3-2" "T" 26 1 "R" 2 148232 1500 149737 "149943" "149943" 533 "<right>" "<right>" 1 1
"100-3-2" "T" 27 1 "U" 2 150494 2250 152749 "152954" "152955" 668 "<up>" "<up>" 1 1
"100-3-2" "T" 28 1 "D" 1 153641 3250 156896 "157101" "157102" 583 "<down>" "<down>" 1 1
"100-3-2" "T" 29 1 "L" 2 157703 3000 160707 "160914" "160915" 521 "<left>" "<left>" 1 1
"100-3-2" "T" 30 -1 "R" 1 161452 1500 162958 "163165" "163165" 530 "<right>" "<right>" 1 1
"100-3-2" "T" 31 -1 "R" 1 163714 1750 165469 "165676" "165677" 520 "<right>" "<right>" 1 1
"100-3-2" "T" 32 -1 "L" 2 166213 3500 169718 "169923" "169924" 590 "<left>" "<left>" 1 1
"100-3-2" "T" 33 1 "R" 1 170526 2250 172781 "172986" "172987" 470 "<right>" "<right>" 1 1
"100-3-2" "T" 34 -1 "L" 2 173474 1500 174979 "175186" "175186" 669 "<left>" "<left>" 1 1
"100-3-2" "T" 35 1 "R" 1 175868 2000 177873 "178078" "178079" 513 "<right>" "<right>" 1 1
"100-3-2" "T" 36 1 "U" 1 178615 2750 181369 "181574" "181575" 458 "<up>" "<up>" 1 1
"100-3-2" "T" 37 1 "L" 1 182047 2250 184303 "184508" "184509" 640 "<left>" "<left>" 1 1
"100-3-2" "T" 38 -1 "U" 1 185159 3500 188665 "188871" "188871" 482 "<up>" "<up>" 1 1
"100-3-2" "T" 39 -1 "L" 2 189365 3000 192369 "192574" "192575" 588 "<left>" "<left>" 1 1
"100-3-2" "T" 40 -1 "L" 2 193185 1500 194690 "194895" "194896" 573 "<left>" "<left>" 1 1
"100-3-2" "T" 41 1 "U" 2 195482 2250 197738 "197945" "197945" 556 "<up>" "<up>" 1 1
"100-3-2" "T" 42 -1 "U" 1 198518 2000 200522 "200729" "200730" 468 "<up>" "<up>" 1 1
"100-3-2" "T" 43 1 "U" 1 201215 2500 203720 "203928" "203928" 448 "<up>" "<up>" 1 1
"100-3-2" "T" 44 1 "D" 1 204386 2000 206391 "206598" "206598" 551 "<down>" "<down>" 1 1
"100-3-2" "T" 45 1 "R" 1 207173 3000 210178 "210385" "210385" 504 "<right>" "<right>" 1 1
"100-3-2" "T" 46 1 "D" 2 210899 3250 214154 "214360" "214360" 667 "<down>" "<down>" 1 1
"100-3-2" "T" 47 -1 "U" 2 215044 2500 217550 "217757" "217758" 546 "<up>" "<up>" 1 1
"100-3-2" "T" 48 1 "U" 2 218330 3250 221585 "221793" "221793" 662 "<up>" "<up>" 1 1
"100-3-2" "T" 49 -1 "R" 1 222467 1750 224222 "224428" "224428" 482 "<right>" "<right>" 1 1
"100-3-2" "T" 50 -1 "U" 2 224928 3250 228183 "228390" "228391" 553 "<up>" "<up>" 1 1
"100-3-3" "P" 0 1 "R" 2 5756 3000 8760 "9266" "9266" 1114 "<right>" "<right>" 1 1
"100-3-3" "P" 0 -1 "U" 2 10402 3000 13407 "13912" "13913" 445 "<up>" "<up>" 1 1
"100-3-3" "P" 0 -1 "D" 1 14384 2250 16640 "17146" "17147" 487 "<down>" "<down>" 1 1
"100-3-3" "P" 0 -1 "D" 1 17662 3500 21167 "21672" "21673" 558 "<down>" "<down>" 1 1
"100-3-3" "P" 0 -1 "L" 2 22257 1750 24013 "24520" "24520" 537 "<left>" "<left>" 1 1
"100-3-3" "P" 0 -1 "R" 2 25077 2500 27581 "28089" "28089" 496 "<right>" "<right>" 1 1
"100-3-3" "P" 0 -1 "L" 1 28606 2750 31362 "31867" "31868" 474 "<left>" "<left>" 1 1
"100-3-3" "P" 0 1 "L" 1 32365 3250 35621 "36129" "36129" 535 "<left>" "<left>" 1 1
"100-3-3" "P" 0 -1 "L" 1 40485 2250 42743 "42948" "42948" 505 "<left>" "<left>" 1 1
"100-3-3" "P" 0 1 "L" 1 43469 1500 44974 "45181" "45181" 490 "<left>" "<left>" 1 1
"100-3-3" "P" 0 -1 "U" 2 45690 2750 48445 "48652" "48653" 616 "<up>" "<up>" 1 1
"100-3-3" "P" 0 1 "D" 1 49286 3250 52541 "52748" "52748" 647 "<down>" "<down>" 1 1
"100-3-3" "P" 0 -1 "L" 2 53424 2500 55929 "56134" "56135" 593 "<left>" "<left>" 1 1
"100-3-3" "P" 0 -1 "U" 2 56754 3250 60009 "60216" "60217" 561 "<up>" "<up>" 1 1
"100-3-3" "P" 0 -1 "D" 2 60796 2000 62802 "63007" "63008" 662 "<down>" "<down>" 1 1
"100-3-3" "P" 0 1 "U" 2 63683 2250 65937 "66142" "66143" 669 "<up>" "<up>" 1 1
"100-3-3" "T" 1 1 "D" 2 71659 3500 75164 "75371" "75371" 642 "<down>" "<down>" 1 1
"100-3-3" "T" 2 -1 "L" 1 76030 2500 78536 "78741" "78742" 540 "<left>" "<left>" 1 1
"100-3-3" "T" 3 -1 "D" 1 79298 2250 81555 "81762" "81762" 600 "<down>" "<down>" 1 1
"100-3-3" "T" 4 -1 "D" 1 82376 2750 85131 "85336" "85337" 514 "<down>" "<down>" 1 1
"100-3-3" "T" 5 1 "D" 1 85870 1750 87626 "87831" "87832" 591 "<down>" "<down>" 1 1
"100-3-3" "T" 6 -1 "D" 2 88441 2500 90947 "91152" "91152" 626 "<down>" "<down>" 1 1
"100-3-3" "T" 7 -1 "R" 2 91800 2250 94054 "94259" "94260" 612 "<right>" "<right>" 1 1
"100-3-3" "T" 8 1 "L" 1 94887 1750 96642 "96850" "96850" 531 "<left>" "<left>" 1 1
"100-3-3" "T" 9 1 "L" 2 97401 1750 99156 "99363" "99364" 558 "<left>" "<left>" 1 1
"100-3-3" "T" 10 -1 "U" 1 99937 1750 101692 "101897" "101898" 611 "<up>" "<up>" 1 1
"100-3-3" "T" 11 -1 "R" 1 102520 3250 105775 "105980" "105981" 598 "<right>" "<right>" 1 1
"100-3-3" "T" 12 -1 "D" 1 106601 1500 108105 "108310" "108311" 584 "<down>" "<down>" 1 1
"100-3-3" "T" 13 1 "D" 1 108918 2000 110922 "111127" "111128" 554 "<down>" "<down>" 1 1
"100-3-3" "T" 14 -1 "U" 1 111708 1750 113463 "113669" "113669" 574 "<up>" "<up>" 1 1
"100-3-3" "T" 15 1 "U" 2 114255 2750 117011 "117217" "117218" 523 "<up>" "<up>" 1 1
"100-3-3" "T" 16 1 "U" 1 117767 3500 121273 "121479" "121480" 523 "<up>" "<up>" 1 1
"100-3-3" "T" 17 1 "R" 2 122019 2750 124775 "124982" "124982" 575 "<right>" "<right>" 1 1
"100-3-3" "T" 18 1 "L" 2 125577 3500 129083 "129290" "129290" 562 "<left>" "<left>" 1 1
"100-3-3" "T" 19 1 "R" 2 129869 1500 131373 "131580" "131581" 741 "<right>" "<right>" 1 1
"100-3-3" "T" 20 1 "D" 1 132340 1500 133846 "134051" "134052" 609 "<down>" "<down>" 1 1
"100-3-3" "T" 21 1 "D" 2 134685 1500 136190 "136397" "136397" 684 "<down>" "<down>" 1 1
"100-3-3" "T" 22 -1 "U" 2 137092 3500 140599 "140806" "140806" 664 "<up>" "<up>" 1 1
"100-3-3" "T" 23 1 "D" 1 141486 2000 143491 "143696" "143697" 603 "<down>" "<down>" 1 1
"100-3-3" "T" 24 1 "U" 1 144316 1500 145822 "146029" "146029" 510 "<up>" "<up>" 1 1
"100-3-3" "T" 25 1 "D" 1 146551 2250 148806 "149012" "149012" 552 "<down>" "<down>" 1 1
"100-3-3" "T" 26 1 "U" 2 149579 2000 151584 "151792" "151792" 574 "<up>" "<up>" 1 1
"100-3-3" "T" 27 1 "L" 2 152380 2000 154384 "154591" "154592" 756 "<left>" "<left>" 1 1
"100-3-3" "T" 28 -1 "D" 1 155362 2500 157869 "158075" "158076" 614 "<down>" "<down>" 1 1
"100-3-3" "T" 29 1 "R" 1 158707 3500 162212 "162417" "162418" 511 "<right>" "<right>" 1 1
"100-3-3" "T" 30 1 "D" 1 162944 2500 165449 "165657" "165657" 603 "<down>" "<down>" 1 1
"100-3-3" "T" 31 1 "R" 2 166282 3250 169537 "169744" "169745" 565 "<right>" "<right>" 1 1
"100-3-3" "T" 32 -1 "D" 2 170322 3000 173328 "173534" "173535" 657 "<down>" "<down>" 1 1
"100-3-3" "T" 33 -1 "L" 1 174208 1750 175963 "176170" "176170" 569 "<left>" "<left>" 1 1
"100-3-3" "T" 34 1 "R" 2 176754 1750 178508 "178713" "178714" 574 "<right>" "<right>" 1 1
"100-3-3" "T" 35 -1 "D" 1 179303 3000 182308 "182514" "182515" 551 "<down>" "<down>" 1 1
"100-3-3" "T" 36 1 "U" 2 183086 2500 185592 "185799" "185799" 574 "<up>" "<up>" 1 1
"100-3-3" "T" 37 1 "D" 1 186397 2750 189153 "189360" "189361" 580 "<down>" "<down>" 1 1
"100-3-3" "T" 38 -1 "R" 2 189956 2750 192710 "192917" "192917" 568 "<right>" "<right>" 1 1
"100-3-3" "T" 39 -1 "U" 1 193495 3000 196501 "196707" "196708" 521 "<up>" "<up>" 1 1
"100-3-3" "T" 40 1 "R" 2 197247 2500 199752 "199957" "199958" 586 "<right>" "<right>" 1 1
"100-3-3" "T" 41 1 "D" 1 200560 2250 202816 "203022" "203023" 569 "<down>" "<down>" 1 1
"100-3-3" "T" 42 -1 "R" 1 203609 2500 206114 "206319" "206320" 593 "<right>" "<right>" 1 1
"100-3-3" "T" 43 1 "U" 2 206927 2250 209183 "209390" "209390" 534 "<up>" "<up>" 1 1
"100-3-3" "T" 44 -1 "U" 1 209941 2750 212697 "212902" "212903" 650 "<up>" "<up>" 1 1
"100-3-3" "T" 45 -1 "D" 1 213569 3000 216575 "216782" "216782" 640 "<down>" "<down>" 1 1
"100-3-3" "T" 46 1 "R" 1 217437 3500 220942 "221147" "221148" 549 "<right>" "<right>" 1 1
"100-3-3" "T" 47 1 "U" 1 221711 2500 224216 "224421" "224422" 511 "<up>" "<up>" 1 1
"100-3-3" "T" 48 1 "L" 2 224960 1500 226464 "226671" "226672" 571 "<left>" "<left>" 1 1
"100-3-3" "T" 49 -1 "L" 2 227255 1750 229009 "229214" "229215" 592 "<left>" "<left>" 1 1
"100-3-3" "T" 50 1 "L" 1 229821 3000 232827 "233034" "233034" 462 "<left>" "<left>" 1 1
"100-3-4" "P" 0 1 "D" 1 11186 1750 12942 "13448" "13448" 667 "<down>" "<down>" 1 1
"100-3-4" "P" 0 1 "D" 1 14127 2500 16634 "17143" "17143" 465 "<down>" "<down>" 1 1
"100-3-4" "P" 0 1 "U" 2 17629 3500 21134 "21640" "21641" 574 "<up>" "<up>" 1 1
"100-3-4" "P" 0 -1 "U" 2 22238 2750 24993 "25501" "25501" 622 "<up>" "<up>" 1 1
"100-3-4" "P" 0 -1 "R" 1 26145 3500 29650 "30155" "30155" 450 "<right>" "<right>" 1 1
"100-3-4" "P" 0 1 "D" 2 30627 2750 33382 "33888" "33889" 520 "<down>" "<down>" 1 1
"100-3-4" "P" 0 -1 "D" 1 34432 1750 36188 "36695" "36696" 476 "<down>" "<down>" 1 1
"100-3-4" "P" 0 -1 "D" 1 37197 3250 40453 "40960" "40960" 573 "<down>" "<down>" 1 1
"100-3-4" "P" 0 -1 "U" 2 46681 2750 49438 "49645" "49645" 497 "<up>" "<up>" 1 1
"100-3-4" "P" 0 -1 "L" 2 50157 1750 51913 "52118" "52118" 370 "<left>" "<up>" 0 0
"100-3-4" "P" 0 1 "R" 2 52504 1500 54009 "54214" "54215" 572 "<right>" "<right>" 1 1
"100-3-4" "P" 0 1 "L" 2 54799 2750 57555 "57762" "57762" 619 "<left>" "<left>" 1 1
"100-3-4" "P" 0 1 "U" 1 58395 2000 60400 "60607" "60607" 521 "<up>" "<up>" 1 1
"100-3-4" "P" 0 -1 "D" 1 61140 3500 64645 "64851" "64851" 679 "<down>" "<down>" 1 1
"100-3-4" "P" 0 -1 "L" 2 65546 3000 68551 "68759" "68759" 593 "<left>" "<left>" 1 1
"100-3-4" "P" 0 1 "U" 1 69366 1500 70871 "71076" "71077" 515 "<up>" "<up>" 1 1
"100-3-4" "T" 1 -1 "R" 1 74693 2750 77448 "77656" "77656" 535 "<right>" "<right>" 1 1
"100-3-4" "T" 2 -1 "R" 2 78202 1500 79708 "79915" "79915" 523 "<right>" "<right>" 1 1
"100-3-4" "T" 3 -1 "U" 2 80455 3250 83710 "83917" "83918" 561 "<up>" "<up>" 1 1
"100-3-4" "T" 4 1 "U" 2 84502 3250 87758 "87963" "87964" 525 "<up>" "<up>" 1 1
"100-3-4" "T" 5 -1 "L" 2 88512 3000 91517 "91723" "91723" 589 "<left>" "<left>" 1 1
"100-3-4" "T" 6 1 "L" 1 92322 2500 94827 "95034" "95034" 488 "<left>" "<left>" 1 1
"100-3-4" "T" 7 1 "D" 1 95536 1500 97041 "97246" "97246" 595 "<down>" "<down>" 1 1
"100-3-4" "T" 8 1 "D" 1 97858 1500 99364 "99571" "99571" 523 "<down>" "<down>" 1 1
"100-3-4" "T" 9 -1 "R" 1 100110 1750 101865 "102072" "102072" 683 "<right>" "<right>" 1 1
"100-3-4" "T" 10 -1 "U" 1 102766 3500 106271 "106477" "106477" 605 "<up>" "<up>" 1 1
"100-3-4" "T" 11 1 "R" 1 107099 3250 110353 "110558" "110559" 518 "<right>" "<right>" 1 1
"100-3-4" "T" 12 -1 "R" 2 111086 3250 114341 "114548" "114548" 618 "<right>" "<right>" 1 1
"100-3-4" "T" 13 1 "L" 1 115178 2750 117933 "118138" "118139" 586 "<left>" "<left>" 1 1
"100-3-4" "T" 14 1 "L" 1 118737 1500 120242 "120449" "120449" 543 "<left>" "<left>" 1 1
"100-3-4" "T" 15 -1 "U" 2 121004 3000 124010 "124217" "124217" 619 "<up>" "<up>" 1 1
"100-3-4" "T" 16 1 "D" 1 124848 2500 127353 "127558" "127559" 657 "<down>" "<down>" 1 1
"100-3-4" "T" 17 -1 "D" 2 128229 3500 131734 "131940" "131940" 631 "<down>" "<down>" 1 1
"100-3-4" "T" 18 -1 "U" 2 132588 2750 135343 "135548" "135549" 534 "<up>" "<up>" 1 1
"100-3-4" "T" 19 -1 "R" 2 136100 3000 139104 "139310" "139311" 604 "<right>" "<right>" 1 1
"100-3-4" "T" 20 -1 "U" 2 139927 2750 142682 "142888" "142889" 508 "<up>" "<up>" 1 1
"100-3-4" "T" 21 -1 "R" 1 143411 3250 146666 "146874" "146874" 603 "<right>" "<right>" 1 1
"100-3-4" "T" 22 1 "D" 2 147489 2250 149743 "149948" "149949" 622 "<down>" "<down>" 1 1
"100-3-4" "T" 23 1 "D" 1 150585 3000 153591 "153798" "153798" 472 "<down>" "<down>" 1 1
"100-3-4" "T" 24 -1 "L" 1 154297 2250 156554 "156760" "156761" 570 "<left>" "<left>" 1 1
"100-3-4" "T" 25 -1 "U" 2 157344 1500 158849 "159056" "159057" 495 "<up>" "<up>" 1 1
"100-3-4" "T" 26 1 "U" 2 159564 3250 162819 "163026" "163026" 558 "<up>" "<up>" 1 1
"100-3-4" "T" 27 -1 "R" 1 163599 2000 165604 "165811" "165811" 494 "<right>" "<right>" 1 1
"100-3-4" "T" 28 1 "R" 2 166319 3250 169573 "169780" "169781" 500 "<right>" "<left>" 0 1
"100-3-4" "T" 29 1 "L" 1 170299 3250 173554 "173760" "173760" 484 "<left>" "<left>" 1 1
"100-3-4" "T" 30 1 "L" 2 174260 1500 175766 "175972" "175972" 792 "<left>" "<left>" 1 1
"100-3-4" "T" 31 -1 "U" 2 176774 2500 179279 "179484" "179484" 670 "<up>" "<up>" 1 1
"100-3-4" "T" 32 -1 "L" 2 180166 2750 182921 "183128" "183128" 623 "<left>" "<left>" 1 1
"100-3-4" "T" 33 1 "R" 1 183772 3500 187278 "187484" "187484" 565 "<right>" "<right>" 1 1
"100-3-4" "T" 34 -1 "D" 2 188061 1750 189815 "190023" "190023" 638 "<down>" "<down>" 1 1
"100-3-4" "T" 35 1 "R" 2 190672 2750 193427 "193632" "193633" 691 "<right>" "<right>" 1 1
"100-3-4" "T" 36 1 "D" 1 194336 3000 197341 "197548" "197548" 610 "<down>" "<down>" 1 1
"100-3-4" "T" 37 -1 "R" 1 198167 2000 200172 "200378" "200379" 603 "<right>" "<right>" 1 1
"100-3-4" "T" 38 -1 "R" 2 201000 1750 202754 "202959" "202959" 610 "<right>" "<right>" 1 1
"100-3-4" "T" 39 1 "R" 1 203582 2750 206337 "206543" "206543" 564 "<right>" "<right>" 1 1
"100-3-4" "T" 40 -1 "L" 2 207121 1500 208627 "208833" "208834" 617 "<left>" "<left>" 1 1
"100-3-4" "T" 41 1 "L" 1 209467 1750 211222 "211427" "211428" 595 "<left>" "<left>" 1 1
"100-3-4" "T" 42 1 "L" 1 212036 2750 214790 "214995" "214996" 785 "<left>" "<left>" 1 1
"100-3-4" "T" 43 1 "L" 1 215794 3500 219300 "219507" "219507" 551 "<left>" "<left>" 1 1
"100-3-4" "T" 44 -1 "L" 1 220072 1500 221577 "221785" "221785" 607 "<left>" "<left>" 1 1
"100-3-4" "T" 45 1 "U" 2 222406 2750 225161 "225366" "225367" 611 "<up>" "<up>" 1 1
"100-3-4" "T" 46 -1 "L" 1 225996 2000 228002 "228209" "228209" 573 "<left>" "<left>" 1 1
"100-3-4" "T" 47 1 "D" 1 228805 2250 231061 "231268" "231268" 566 "<down>" "<down>" 1 1
"100-3-4" "T" 48 -1 "U" 1 231844 3000 234849 "235056" "235057" 467 "<up>" "<up>" 1 1
"100-3-4" "T" 49 1 "L" 2 235534 1500 237040 "237247" "237247" 906 "<left>" "<left>" 1 1
"100-3-4" "T" 50 1 "L" 2 238166 1500 239671 "239878" "239879" 621 "<left>" "<left>" 1 1
"100-4-1" "P" 0 -1 "R" 1 3740 2000 5745 "6253" "6254" 520 "<right>" "<right>" 1 1
"100-4-1" "P" 0 -1 "L" 2 6795 1750 8549 "9056" "9056" 501 "<left>" "<left>" 1 1
"100-4-1" "P" 0 1 "R" 1 9579 3000 12584 "13090" "13091" 531 "<right>" "<right>" 1 1
"100-4-1" "P" 0 1 "L" 1 13638 2250 15893 "16402" "16402" 423 "<left>" "<left>" 1 1
"100-4-1" "P" 0 -1 "R" 1 16849 3250 20104 "20610" "20611" 445 "<right>" "<right>" 1 1
"100-4-1" "P" 0 1 "L" 1 21079 1750 22836 "23343" "23344" 396 "<left>" "<left>" 1 1
"100-4-1" "P" 0 -1 "U" 1 23764 1500 25270 "25777" "25778" 450 "<up>" "<up>" 1 1
"100-4-1" "P" 0 -1 "R" 2 26255 1750 28011 "28517" "28518" 491 "<right>" "<right>" 1 1
"100-4-1" "P" 0 -1 "R" 1 31616 1500 33122 "33329" "33329" 474 "<right>" "<right>" 1 1
"100-4-1" "P" 0 1 "D" 2 33820 3500 37327 "37534" "37534" 613 "<down>" "<down>" 1 1
"100-4-1" "P" 0 -1 "D" 2 38161 3500 41667 "41874" "41874" 605 "<down>" "<down>" 1 1
"100-4-1" "P" 0 1 "L" 2 42493 2000 44498 "44704" "44705" 581 "<left>" "<left>" 1 1
"100-4-1" "P" 0 -1 "U" 1 45298 1500 46803 "47010" "47010" 556 "<up>" "<up>" 1 1
"100-4-1" "P" 0 1 "L" 1 47577 3500 51083 "51289" "51289" 507 "<left>" "<left>" 1 1
"100-4-1" "P" 0 -1 "R" 1 51813 2250 54069 "54277" "54277" 495 "<right>" "<right>" 1 1
"100-4-1" "P" 0 -1 "L" 2 54789 1500 56294 "56502" "56503" 570 "<left>" "<left>" 1 1
"100-4-1" "T" 1 1 "R" 2 59217 1500 60721 "60928" "60929" 532 "<right>" "<right>" 1 1
"100-4-1" "T" 2 1 "R" 1 61473 1750 63228 "63434" "63435" 608 "<right>" "<right>" 1 1
"100-4-1" "T" 3 1 "U" 1 64056 3500 67562 "67769" "67770" 539 "<up>" "<up>" 1 1
"100-4-1" "T" 4 -1 "L" 2 68325 2000 70330 "70536" "70536" 583 "<left>" "<left>" 1 1
"100-4-1" "T" 5 -1 "R" 2 71143 2250 73399 "73605" "73606" 535 "<right>" "<right>" 1 1
"100-4-1" "T" 6 -1 "D" 1 74163 2250 76418 "76624" "76625" 574 "<down>" "<down>" 1 1
"100-4-1" "T" 7 1 "R" 1 77213 2500 79719 "79926" "79926" 568 "<right>" "<right>" 1 1
"100-4-1" "T" 8 -1 "L" 2 80508 3500 84013 "84222" "84222" 577 "<left>" "<left>" 1 1
"100-4-1" "T" 9 1 "D" 2 84811 3500 88318 "88526" "88526" 675 "<down>" "<down>" 1 1
"100-4-1" "T" 10 -1 "L" 2 89215 2250 91471 "91677" "91677" 554 "<left>" "<left>" 1 1
"100-4-1" "T" 11 1 "D" 1 92244 1750 94000 "94206" "94206" 591 "<down>" "<down>" 1 1
"100-4-1" "T" 12 -1 "U" 1 94811 3250 98065 "98271" "98271" 553 "<up>" "<up>" 1 1
"100-4-1" "T" 13 1 "D" 2 98837 2500 101342 "101548" "101548" 602 "<down>" "<down>" 1 1
"100-4-1" "T" 14 -1 "L" 2 102163 2500 104667 "104872" "104873" 573 "<left>" "<left>" 1 1
"100-4-1" "T" 15 -1 "U" 2 105459 3500 108964 "109172" "109172" 614 "<up>" "<up>" 1 1
"100-4-1" "T" 16 -1 "D" 2 109800 2750 112555 "112761" "112762" 542 "<down>" "<down>" 1 1
"100-4-1" "T" 17 -1 "R" 2 113318 3500 116824 "117030" "117031" 704 "<right>" "<right>" 1 1
"100-4-1" "T" 18 -1 "U" 2 117748 3250 121004 "121210" "121210" 605 "<up>" "<up>" 1 1
"100-4-1" "T" 19 -1 "D" 2 121830 1750 123587 "123793" "123793" 659 "<down>" "<down>" 1 1
"100-4-1" "T" 20 1 "D" 1 124463 2750 127219 "127425" "127425" 584 "<down>" "<down>" 1 1
"100-4-1" "T" 21 -1 "U" 1 128024 2000 130030 "130237" "130237" 563 "<up>" "<up>" 1 1
"100-4-1" "T" 22 1 "L" 1 130814 3000 133820 "134026" "134027" 571 "<left>" "<left>" 1 1
"100-4-1" "T" 23 1 "R" 2 134611 1500 136116 "136322" "136323" 549 "<right>" "<right>" 1 1
"100-4-1" "T" 24 -1 "R" 2 136884 3000 139890 "140096" "140097" 683 "<right>" "<right>" 1 1
"100-4-1" "T" 25 -1 "U" 2 140804 1750 142560 "142766" "142767" 581 "<up>" "<up>" 1 1
"100-4-1" "T" 26 1 "L" 2 143358 1750 145114 "145320" "145321" 637 "<left>" "<left>" 1 1
"100-4-1" "T" 27 -1 "D" 2 145972 1500 147477 "147685" "147685" 668 "<down>" "<down>" 1 1
"100-4-1" "T" 28 1 "R" 1 148373 2250 150629 "150835" "150835" 483 "<right>" "<right>" 1 1
"100-4-1" "T" 29 -1 "R" 2 151330 3500 154837 "155044" "155044" 539 "<right>" "<right>" 1 1
"100-4-1" "T" 30 1 "D" 2 155594 1750 157349 "157555" "157556" 597 "<down>" "<down>" 1 1
"100-4-1" "T" 31 1 "U" 2 158167 3250 161423 "161630" "161630" 640 "<up>" "<up>" 1 1
"100-4-1" "T" 32 1 "L" 1 162284 2000 164289 "164495" "164496" 518 "<left>" "<left>" 1 1
"100-4-1" "T" 33 1 "R" 1 165032 2750 167788 "167994" "167994" 602 "<right>" "<right>" 1 1
"100-4-1" "T" 34 -1 "L" 1 168609 3500 172115 "172324" "172324" 642 "<left>" "<left>" 1 1
"100-4-1" "T" 35 -1 "D" 2 172984 1500 174489 "174695" "174695" 629 "<down>" "<down>" 1 1
"100-4-1" "T" 36 -1 "R" 2 175335 2250 177590 "177797" "177798" 917 "<right>" "<right>" 1 1
"100-4-1" "T" 37 1 "L" 1 178729 2000 180735 "180941" "180941" 569 "<left>" "<left>" 1 1
"100-4-1" "T" 38 1 "L" 1 181523 2250 183779 "183985" "183985" 522 "<left>" "<left>" 1 1
"100-4-1" "T" 39 -1 "D" 2 184521 1750 186276 "186482" "186482" 621 "<down>" "<down>" 1 1
"100-4-1" "T" 40 -1 "D" 2 187117 2750 189872 "190078" "190079" 644 "<down>" "<down>" 1 1
"100-4-1" "T" 41 -1 "L" 1 190746 3250 194002 "194208" "194209" 528 "<left>" "<left>" 1 1
"100-4-1" "T" 42 -1 "L" 1 194748 1500 196252 "196459" "196459" 528 "<left>" "<left>" 1 1
"100-4-1" "T" 43 -1 "R" 1 197002 2250 199257 "199464" "199465" 491 "<right>" "<right>" 1 1
"100-4-1" "T" 44 -1 "U" 1 199968 3500 203474 "203680" "203681" 661 "<up>" "<up>" 1 1
"100-4-1" "T" 45 -1 "D" 2 204354 3000 207359 "207565" "207566" 648 "<down>" "<down>" 1 1
"100-4-1" "T" 46 1 "U" 2 208229 3250 211484 "211690" "211691" 604 "<up>" "<up>" 1 1
"100-4-1" "T" 47 1 "U" 2 212318 2750 215074 "215281" "215281" 565 "<up>" "<up>" 1 1
"100-4-1" "T" 48 -1 "D" 2 215860 2000 217865 "218071" "218072" 700 "<down>" "<down>" 1 1
"100-4-1" "T" 49 1 "D" 1 218783 2000 220788 "220995" "220995" 566 "<down>" "<down>" 1 1
"100-4-1" "T" 50 -1 "U" 1 221577 3500 225082 "225288" "225289" 567 "<up>" "<up>" 1 1
"100-4-2" "P" 0 -1 "D" 2 3825 1750 5582 "6088" "6088" 575 "<down>" "<down>" 1 1
"100-4-2" "P" 0 -1 "U" 2 6679 1750 8434 "8940" "8940" 546 "<up>" "<up>" 1 1
"100-4-2" "P" 0 1 "L" 1 9506 2000 11511 "12018" "12019" 562 "<left>" "<left>" 1 1
"100-4-2" "P" 0 -1 "U" 2 12594 3000 15600 "16108" "16108" 520 "<up>" "<up>" 1 1
"100-4-2" "P" 0 -1 "D" 2 16646 2750 19401 "19907" "19908" 574 "<down>" "<down>" 1 1
"100-4-2" "P" 0 -1 "U" 1 20493 3500 23999 "24505" "24506" 420 "<up>" "<up>" 1 1
"100-4-2" "P" 0 1 "L" 2 24950 2750 27708 "28216" "28216" 445 "<left>" "<right>" 0 1
"100-4-2" "P" 0 1 "D" 1 28686 1750 30442 "30948" "30949" 632 "<down>" "<down>" 1 1
"100-4-2" "P" 0 1 "U" 2 33612 2000 35617 "35823" "35824" 547 "<up>" "<up>" 1 1
"100-4-2" "P" 0 1 "D" 2 36385 3500 39890 "40096" "40097" 681 "<down>" "<down>" 1 1
"100-4-2" "P" 0 1 "D" 1 40793 2500 43299 "43507" "43507" 618 "<down>" "<down>" 1 1
"100-4-2" "P" 0 -1 "U" 1 44136 1500 45641 "45848" "45848" 538 "<up>" "<up>" 1 1
"100-4-2" "P" 0 1 "U" 1 46397 3500 49902 "50108" "50108" 666 "<up>" "<up>" 1 1
"100-4-2" "P" 0 1 "L" 2 50786 2000 52791 "52997" "52998" 661 "<left>" "<left>" 1 1
"100-4-2" "P" 0 -1 "L" 1 53671 3500 57176 "57382" "57382" 604 "<left>" "<left>" 1 1
"100-4-2" "P" 0 -1 "D" 1 58001 2000 60007 "60215" "60215" 670 "<down>" "<down>" 1 1
"100-4-2" "T" 1 1 "U" 2 62648 3250 65904 "66111" "66112" 603 "<up>" "<up>" 1 1
"100-4-2" "T" 2 1 "D" 2 66726 1500 68232 "68438" "68438" 1000 "<down>" "<down>" 1 1
"100-4-2" "T" 3 -1 "R" 2 69449 1750 71204 "71410" "71410" 817 "<right>" "<right>" 1 1
"100-4-2" "T" 4 -1 "U" 1 72238 1500 73744 "73951" "73952" 545 "<up>" "<up>" 1 1
"100-4-2" "T" 5 1 "R" 2 74510 3250 77765 "77971" "77972" 622 "<right>" "<right>" 1 1
"100-4-2" "T" 6 1 "D" 1 78605 3500 82111 "82317" "82318" 607 "<down>" "<down>" 1 1
"100-4-2" "T" 7 1 "R" 1 82937 2500 85442 "85648" "85649" 604 "<right>" "<right>" 1 1
"100-4-2" "T" 8 -1 "R" 1 86265 3500 89771 "89977" "89977" 570 "<right>" "<right>" 1 1
"100-4-2" "T" 9 1 "R" 1 90557 2000 92563 "92769" "92770" 568 "<right>" "<right>" 1 1
"100-4-2" "T" 10 1 "D" 2 93350 2250 95607 "95815" "95815" 670 "<down>" "<down>" 1 1
"100-4-2" "T" 11 -1 "U" 2 96498 3500 100004 "100212" "100213" 606 "<up>" "<up>" 1 1
"100-4-2" "T" 12 -1 "L" 1 100832 3000 103837 "104044" "104044" 562 "<left>" "<left>" 1 1
"100-4-2" "T" 13 1 "U" 2 104619 1500 106124 "106330" "106330" 639 "<up>" "<up>" 1 1
"100-4-2" "T" 14 -1 "L" 2 106979 3000 109985 "110193" "110193" 547 "<left>" "<left>" 1 1
"100-4-2" "T" 15 1 "R" 1 110753 1500 112259 "112465" "112465" 539 "<right>" "<right>" 1 1
"100-4-2" "T" 16 -1 "L" 1 113017 2000 115023 "115230" "115231" 561 "<left>" "<left>" 1 1
"100-4-2" "T" 17 1 "D" 2 115802 2750 118558 "118764" "118765" 656 "<down>" "<down>" 1 1
"100-4-2" "T" 18 -1 "U" 2 119433 3500 122938 "123145" "123146" 597 "<up>" "<up>" 1 1
"100-4-2" "T" 19 1 "L" 1 123756 2000 125762 "125968" "125968" 501 "<left>" "<left>" 1 1
"100-4-2" "T" 20 1 "L" 1 126483 1500 127989 "128196" "128196" 442 "<left>" "<left>" 1 1
"100-4-2" "T" 21 1 "R" 1 128652 2750 131408 "131614" "131614" 486 "<right>" "<left>" 0 1
"100-4-2" "T" 22 1 "L" 1 132114 3000 135120 "135326" "135327" 480 "<left>" "<left>" 1 1
"100-4-2" "T" 23 -1 "D" 1 135820 2000 137825 "138032" "138032" 659 "<down>" "<down>" 1 1
"100-4-2" "T" 24 1 "L" 1 138701 2500 141206 "141414" "141414" 603 "<left>" "<left>" 1 1
"100-4-2" "T" 25 -1 "L" 1 142031 2500 144536 "144742" "144743" 572 "<left>" "<left>" 1 1
"100-4-2" "T" 26 -1 "R" 2 145328 2000 147334 "147540" "147540" 647 "<right>" "<right>" 1 1
"100-4-2" "T" 27 -1 "U" 2 148198 2000 150204 "150410" "150411" 623 "<up>" "<up>" 1 1
"100-4-2" "T" 28 1 "U" 1 151044 1500 152551 "152757" "152758" 583 "<up>" "<up>" 1 1
"100-4-2" "T" 29 -1 "U" 2 153352 2000 155357 "155564" "155564" 607 "<up>" "<up>" 1 1
"100-4-2" "T" 30 -1 "D" 1 156185 1500 157690 "157897" "157897" 572 "<down>" "<down>" 1 1
"100-4-2" "T" 31 1 "L" 2 158481 2250 160738 "160946" "160946" 616 "<left>" "<left>" 1 1
"100-4-2" "T" 32 -1 "R" 1 161576 1500 163082 "163288" "163288" 583 "<right>" "<right>" 1 1
"100-4-2" "T" 33 -1 "R" 1 163882 2250 166138 "166344" "166344" 693 "<right>" "<right>" 1 1
"100-4-2" "T" 34 1 "U" 1 167049 3000 170056 "170262" "170263" 572 "<up>" "<up>" 1 1
"100-4-2" "T" 35 1 "D" 1 170845 3250 174101 "174307" "174308" 659 "<down>" "<down>" 1 1
"100-4-2" "T" 36 -1 "D" 2 174982 3250 178239 "178447" "178447" 695 "<down>" "<down>" 1 1
"100-4-2" "T" 37 -1 "R" 2 179153 2250 181409 "181615" "181615" 621 "<right>" "<right>" 1 1
"100-4-2" "T" 38 -1 "D" 1 182249 1500 183754 "183960" "183961" 567 "<down>" "<down>" 1 1
"100-4-2" "T" 39 1 "R" 1 184537 1500 186043 "186251" "186251" 660 "<right>" "<right>" 1 1
"100-4-2" "T" 40 -1 "D" 1 186925 2500 189430 "189637" "189638" 607 "<down>" "<down>" 1 1
"100-4-2" "T" 41 -1 "R" 2 190259 1500 191765 "191971" "191971" 718 "<right>" "<right>" 1 1
"100-4-2" "T" 42 -1 "R" 1 192704 1500 194211 "194417" "194417" 538 "<right>" "<right>" 1 1
"100-4-2" "T" 43 -1 "R" 1 194968 1500 196474 "196680" "196680" 555 "<right>" "<right>" 1 1
"100-4-2" "T" 44 -1 "R" 2 197248 3500 200753 "200959" "200959" 657 "<right>" "<right>" 1 1
"100-4-2" "T" 45 1 "D" 1 201629 2000 203634 "203843" "203843" 636 "<down>" "<down>" 1 1
"100-4-2" "T" 46 1 "L" 2 204493 3500 207998 "208207" "208207" 632 "<left>" "<left>" 1 1
"100-4-2" "T" 47 1 "L" 2 208853 3000 211859 "212067" "212067" 520 "<left>" "<left>" 1 1
"100-4-2" "T" 48 1 "R" 1 212598 2750 215353 "215559" "215560" 530 "<right>" "<right>" 1 1
"100-4-2" "T" 49 1 "D" 1 216101 2500 218607 "218813" "218813" 649 "<down>" "<down>" 1 1
"100-4-2" "T" 50 -1 "D" 2 219476 2750 222231 "222437" "222438" 713 "<down>" "<down>" 1 1
"100-4-3" "P" 0 1 "R" 2 2987 2750 5744 "6251" "6251" 753 "<right>" "<right>" 1 1
"100-4-3" "P" 0 1 "R" 1 7021 3000 10027 "10533" "10533" 456 "<right>" "<right>" 1 1
"100-4-3" "P" 0 1 "U" 2 11013 1500 12519 "13025" "13026" 478 "<up>" "<up>" 1 1
"100-4-3" "P" 0 -1 "L" 1 13528 2250 15785 "16292" "16293" 460 "<left>" "<left>" 1 1
"100-4-3" "P" 0 1 "U" 2 16777 3500 20282 "20789" "20789" 485 "<up>" "<up>" 1 1
"100-4-3" "P" 0 -1 "U" 1 21301 3000 24307 "24814" "24814" 493 "<up>" "<up>" 1 1
"100-4-3" "P" 0 -1 "U" 2 25332 2500 27837 "28343" "28343" 632 "<up>" "<up>" 1 1
"100-4-3" "P" 0 1 "R" 1 28994 2250 31249 "31757" "31757" 477 "<right>" "<right>" 1 1
"100-4-3" "P" 0 -1 "L" 2 34995 3250 38250 "38457" "38457" 649 "<left>" "<left>" 1 1
"100-4-3" "P" 0 -1 "D" 1 39121 3250 42376 "42582" "42583" 684 "<down>" "<down>" 1 1
"100-4-3" "P" 0 1 "D" 2 43282 3500 46787 "46993" "46994" 733 "<down>" "<down>" 1 1
"100-4-3" "P" 0 1 "R" 1 47742 2250 49997 "50203" "50204" 570 "<right>" "<right>" 1 1
"100-4-3" "P" 0 -1 "R" 2 50790 3500 54294 "54501" "54501" 535 "<right>" "<right>" 1 1
"100-4-3" "P" 0 1 "R" 2 55060 1500 56565 "56772" "56772" 573 "<right>" "<right>" 1 1
"100-4-3" "P" 0 1 "R" 2 57365 1750 59121 "59327" "59327" 485 "<right>" "<right>" 1 1
"100-4-3" "P" 0 -1 "U" 2 59827 2000 61832 "62039" "62039" 597 "<up>" "<up>" 1 1
"100-4-3" "T" 1 -1 "L" 1 65685 2250 67939 "68146" "68146" 591 "<left>" "<left>" 1 1
"100-4-3" "T" 2 -1 "L" 1 68750 3250 72005 "72211" "72212" 548 "<left>" "<left>" 1 1
"100-4-3" "T" 3 1 "L" 1 72774 1500 74279 "74486" "74486" 496 "<left>" "<left>" 1 1
"100-4-3" "T" 4 -1 "U" 1 75010 1500 76515 "76722" "76722" 541 "<up>" "<up>" 1 1
"100-4-3" "T" 5 -1 "R" 1 77284 2750 80040 "80246" "80247" 563 "<right>" "<right>" 1 1
"100-4-3" "T" 6 1 "L" 2 80821 2250 83077 "83283" "83283" 531 "<left>" "<left>" 1 1
"100-4-3" "T" 7 -1 "R" 1 83832 2750 86588 "86794" "86795" 567 "<right>" "<right>" 1 1
"100-4-3" "T" 8 -1 "U" 2 87376 1500 88882 "89088" "89088" 509 "<up>" "<up>" 1 1
"100-4-3" "T" 9 1 "U" 2 89619 2000 91625 "91832" "91832" 508 "<up>" "<up>" 1 1
"100-4-3" "T" 10 1 "R" 2 92353 3500 95859 "96066" "96066" 547 "<right>" "<right>" 1 1
"100-4-3" "T" 11 1 "U" 1 96630 2250 98885 "99091" "99092" 486 "<up>" "<up>" 1 1
"100-4-3" "T" 12 1 "U" 2 99595 1750 101350 "101557" "101558" 469 "<up>" "<up>" 1 1
"100-4-3" "T" 13 -1 "U" 2 102045 1750 103800 "104006" "104007" 504 "<up>" "<up>" 1 1
"100-4-3" "T" 14 -1 "U" 2 104530 1750 106286 "106492" "106493" 486 "<up>" "<up>" 1 1
"100-4-3" "T" 15 1 "L" 1 106999 1500 108505 "108712" "108712" 503 "<left>" "<left>" 1 1
"100-4-3" "T" 16 1 "D" 1 109234 1500 110739 "110946" "110947" 609 "<down>" "<down>" 1 1
"100-4-3" "T" 17 1 "L" 1 111569 3250 114825 "115031" "115032" 484 "<left>" "<left>" 1 1
"100-4-3" "T" 18 -1 "D" 2 115542 2750 118297 "118503" "118503" 675 "<down>" "<down>" 1 1
"100-4-3" "T" 19 -1 "D" 2 119192 2500 121698 "121905" "121905" 641 "<down>" "<down>" 1 1
"100-4-3" "T" 20 1 "U" 2 122557 1500 124063 "124269" "124270" 517 "<up>" "<up>" 1 1
"100-4-3" "T" 21 -1 "R" 1 124801 2750 127556 "127763" "127763" 534 "<right>" "<right>" 1 1
"100-4-3" "T" 22 -1 "R" 2 128316 2000 130323 "130530" "130531" 579 "<right>" "<right>" 1 1
"100-4-3" "T" 23 -1 "D" 2 131130 2250 133385 "133592" "133592" 600 "<down>" "<down>" 1 1
"100-4-3" "T" 24 -1 "D" 2 134209 1500 135715 "135922" "135922" 599 "<down>" "<down>" 1 1
"100-4-3" "T" 25 -1 "R" 1 136535 2750 139291 "139497" "139498" 564 "<right>" "<right>" 1 1
"100-4-3" "T" 26 1 "L" 1 140078 3500 143583 "143789" "143790" 628 "<left>" "<left>" 1 1
"100-4-3" "T" 27 1 "R" 2 144433 2750 147189 "147395" "147396" 582 "<right>" "<right>" 1 1
"100-4-3" "T" 28 -1 "R" 2 147994 1500 149500 "149706" "149707" 546 "<right>" "<right>" 1 1
"100-4-3" "T" 29 -1 "D" 1 150284 2250 152539 "152745" "152746" 558 "<down>" "<down>" 1 1
"100-4-3" "T" 30 -1 "R" 1 153318 2500 155825 "156031" "156031" 490 "<right>" "<right>" 1 1
"100-4-3" "T" 31 1 "U" 1 156542 2250 158798 "159004" "159004" 529 "<up>" "<up>" 1 1
"100-4-3" "T" 32 1 "L" 2 159546 3250 162801 "163007" "163007" 583 "<left>" "<left>" 1 1
"100-4-3" "T" 33 -1 "L" 2 163609 1750 165364 "165570" "165571" 501 "<left>" "<right>" 0 1
"100-4-3" "T" 34 1 "U" 2 166092 3000 169097 "169304" "169304" 587 "<up>" "<up>" 1 1
"100-4-3" "T" 35 1 "R" 2 169903 3000 172908 "173114" "173114" 675 "<right>" "<right>" 1 1
"100-4-3" "T" 36 -1 "U" 2 173805 2500 176311 "176518" "176518" 579 "<up>" "<up>" 1 1
"100-4-3" "T" 37 1 "L" 1 177111 3500 180616 "180823" "180823" 612 "<left>" "<left>" 1 1
"100-4-3" "T" 38 -1 "D" 2 181452 2250 183709 "183915" "183916" 604 "<down>" "<down>" 1 1
"100-4-3" "T" 39 1 "U" 2 184533 1500 186038 "186247" "186247" 575 "<up>" "<up>" 1 1
"100-4-3" "T" 40 -1 "D" 2 186833 3250 190089 "190295" "190296" 629 "<down>" "<down>" 1 1
"100-4-3" "T" 41 1 "L" 2 190940 2000 192945 "193151" "193152" 529 "<left>" "<left>" 1 1
"100-4-3" "T" 42 -1 "D" 2 193697 2500 196203 "196411" "196412" 677 "<down>" "<down>" 1 1
"100-4-3" "T" 43 1 "D" 1 197104 2000 199110 "199317" "199317" 565 "<down>" "<down>" 1 1
"100-4-3" "T" 44 1 "R" 2 199895 1750 201651 "201857" "201858" 640 "<right>" "<right>" 1 1
"100-4-3" "T" 45 1 "R" 1 202516 3000 205521 "205727" "205727" 555 "<right>" "<right>" 1 1
"100-4-3" "T" 46 -1 "R" 1 206293 3000 209298 "209504" "209505" 514 "<right>" "<right>" 1 1
"100-4-3" "T" 47 -1 "D" 1 210033 2500 212539 "212745" "212745" 532 "<down>" "<down>" 1 1
"100-4-3" "T" 48 1 "L" 1 213291 2750 216046 "216252" "216253" 520 "<left>" "<left>" 1 1
"100-4-3" "T" 49 -1 "U" 1 216791 3250 220046 "220252" "220253" 589 "<up>" "<up>" 1 1
"100-4-3" "T" 50 1 "L" 2 220863 1500 222368 "222574" "222575" 639 "<left>" "<left>" 1 1
"100-4-4" "P" 0 1 "L" 1 1942 2750 4699 "5209" "5210" 445 "<left>" "<left>" 1 1
"100-4-4" "P" 0 1 "U" 1 5679 2250 7934 "8440" "8441" 368 "<up>" "<up>" 1 1
"100-4-4" "P" 0 1 "R" 2 8836 1500 10343 "10849" "10849" 546 "<right>" "<right>" 1 1
"100-4-4" "P" 0 -1 "U" 1 11413 1750 13169 "13676" "13677" 421 "<up>" "<up>" 1 1
"100-4-4" "P" 0 1 "U" 1 14121 3250 17377 "17883" "17884" 381 "<up>" "<up>" 1 1
"100-4-4" "P" 0 1 "R" 1 18290 1500 19796 "20304" "20304" 391 "<right>" "<right>" 1 1
"100-4-4" "P" 0 1 "U" 1 20721 1750 22476 "22982" "22982" 403 "<up>" "<up>" 1 1
"100-4-4" "P" 0 -1 "D" 2 23414 3500 26919 "27425" "27425" 406 "<down>" "<up>" 0 1
"100-4-4" "P" 0 -1 "L" 1 30612 3500 34118 "34324" "34325" 672 "<left>" "<left>" 1 1
"100-4-4" "P" 0 1 "R" 1 35009 3000 38016 "38222" "38222" 516 "<right>" "<right>" 1 1
"100-4-4" "P" 0 -1 "D" 2 38751 3500 42258 "42465" "42466" 650 "<down>" "<down>" 1 1
"100-4-4" "P" 0 1 "L" 1 43127 3250 46382 "46590" "46590" 576 "<left>" "<left>" 1 1
"100-4-4" "P" 0 -1 "L" 2 47178 1750 48934 "49141" "49141" 531 "<left>" "<left>" 1 1
"100-4-4" "P" 0 1 "U" 1 49683 3500 53188 "53394" "53394" 598 "<up>" "<up>" 1 1
"100-4-4" "P" 0 1 "D" 2 54004 2250 56259 "56465" "56466" 585 "<down>" "<down>" 1 1
"100-4-4" "P" 0 -1 "L" 2 57063 1500 58569 "58777" "58777" 555 "<left>" "<left>" 1 1
"100-4-4" "T" 1 -1 "D" 2 62680 2250 64936 "65142" "65143" 643 "<down>" "<down>" 1 1
"100-4-4" "T" 2 1 "D" 2 65796 2000 67802 "68008" "68008" 588 "<down>" "<down>" 1 1
"100-4-4" "T" 3 1 "L" 2 68608 3000 71614 "71822" "71823" 570 "<left>" "<left>" 1 1
"100-4-4" "T" 4 1 "D" 2 72402 2500 74906 "75110" "75110" 650 "<down>" "<down>" 1 1
"100-4-4" "T" 5 1 "D" 2 75773 3500 79279 "79487" "79487" 623 "<down>" "<down>" 1 1
"100-4-4" "T" 6 1 "U" 2 80123 3250 83378 "83584" "83584" 569 "<up>" "<up>" 1 1
"100-4-4" "T" 7 -1 "R" 1 84166 2000 86172 "86378" "86379" 520 "<right>" "<right>" 1 1
"100-4-4" "T" 8 -1 "R" 1 86912 3000 89918 "90127" "90127" 499 "<right>" "<right>" 1 1
"100-4-4" "T" 9 1 "R" 2 90638 1750 92393 "92599" "92600" 533 "<right>" "<right>" 1 1
"100-4-4" "T" 10 -1 "U" 2 93143 3250 96398 "96604" "96605" 507 "<up>" "<up>" 1 1
"100-4-4" "T" 11 -1 "R" 1 97121 1750 98877 "99085" "99086" 460 "<right>" "<right>" 1 1
"100-4-4" "T" 12 1 "L" 1 99556 3000 102562 "102768" "102768" 498 "<left>" "<right>" 0 1
"100-4-4" "T" 13 1 "D" 1 103278 2500 105783 "105989" "105990" 556 "<down>" "<down>" 1 1
"100-4-4" "T" 14 1 "R" 1 106558 2250 108813 "109019" "109020" 523 "<right>" "<right>" 1 1
"100-4-4" "T" 15 -1 "L" 2 109553 2250 111809 "112016" "112016" 596 "<left>" "<left>" 1 1
"100-4-4" "T" 16 -1 "D" 2 112622 3000 115628 "115836" "115836" 614 "<down>" "<down>" 1 1
"100-4-4" "T" 17 1 "R" 2 116461 2750 119216 "119422" "119423" 572 "<right>" "<right>" 1 1
"100-4-4" "T" 18 -1 "R" 1 120006 3250 123263 "123470" "123471" 490 "<right>" "<right>" 1 1
"100-4-4" "T" 19 1 "U" 2 123972 2250 126227 "126433" "126434" 578 "<up>" "<up>" 1 1
"100-4-4" "T" 20 1 "R" 2 127021 2250 129276 "129482" "129482" 580 "<right>" "<right>" 1 1
"100-4-4" "T" 21 -1 "R" 2 130072 2750 132828 "133036" "133036" 578 "<right>" "<right>" 1 1
"100-4-4" "T" 22 -1 "U" 1 133625 3250 136881 "137089" "137089" 519 "<up>" "<up>" 1 1
"100-4-4" "T" 23 -1 "R" 1 137619 2500 140125 "140331" "140331" 513 "<right>" "<right>" 1 1
"100-4-4" "T" 24 1 "R" 1 140854 2500 143360 "143568" "143568" 494 "<right>" "<right>" 1 1
"100-4-4" "T" 25 -1 "L" 2 144074 2750 146830 "147039" "147039" 554 "<left>" "<left>" 1 1
"100-4-4" "T" 26 1 "D" 1 147604 3250 150859 "151065" "151065" 560 "<down>" "<down>" 1 1
"100-4-4" "T" 27 -1 "D" 1 151638 2000 153643 "153849" "153849" 560 "<down>" "<down>" 1 1
"100-4-4" "T" 28 1 "D" 1 154421 2750 157176 "157382" "157382" 522 "<down>" "<down>" 1 1
"100-4-4" "T" 29 1 "D" 1 157916 2000 159921 "160127" "160127" 496 "<down>" "<down>" 1 1
"100-4-4" "T" 30 -1 "D" 2 160632 3500 164138 "164344" "164345" 580 "<down>" "<down>" 1 1
"100-4-4" "T" 31 1 "U" 1 164936 2000 166942 "167151" "167151" 475 "<up>" "<down>" 0 1
"100-4-4" "T" 32 1 "L" 2 167638 2250 169893 "170099" "170099" 536 "<left>" "<left>" 1 1
"100-4-4" "T" 33 1 "L" 1 170645 2500 173150 "173357" "173357" 483 "<left>" "<left>" 1 1
"100-4-4" "T" 34 -1 "R" 2 173849 3000 176854 "177060" "177061" 608 "<right>" "<right>" 1 1
"100-4-4" "T" 35 -1 "U" 1 177678 2750 180434 "180641" "180641" 496 "<up>" "<up>" 1 1
"100-4-4" "T" 36 1 "D" 1 181150 2000 183155 "183361" "183361" 642 "<down>" "<down>" 1 1
"100-4-4" "T" 37 1 "L" 1 184014 3500 187519 "187726" "187726" 535 "<left>" "<left>" 1 1
"100-4-4" "T" 38 1 "D" 2 188274 2500 190779 "190985" "190985" 689 "<down>" "<down>" 1 1
"100-4-4" "T" 39 1 "L" 1 191687 1750 193442 "193650" "193650" 594 "<left>" "<left>" 1 1
"100-4-4" "T" 40 -1 "U" 2 194256 3500 197762 "197969" "197969" 602 "<up>" "<up>" 1 1
"100-4-4" "T" 41 1 "U" 2 198581 1750 200337 "200543" "200544" 556 "<up>" "<up>" 1 1
"100-4-4" "T" 42 -1 "U" 2 201111 2250 203367 "203574" "203574" 548 "<up>" "<up>" 1 1
"100-4-4" "T" 43 -1 "L" 1 204132 3500 207638 "207844" "207844" 562 "<left>" "<left>" 1 1
"100-4-4" "T" 44 -1 "R" 1 208418 1750 210174 "210380" "210381" 510 "<right>" "<right>" 1 1
"100-4-4" "T" 45 1 "R" 1 210902 2750 213657 "213865" "213865" 604 "<right>" "<right>" 1 1
"100-4-4" "T" 46 1 "L" 2 214480 1750 216236 "216442" "216442" 597 "<left>" "<left>" 1 1
"100-4-4" "T" 47 -1 "D" 2 217050 2500 219556 "219764" "219764" 613 "<down>" "<down>" 1 1
"100-4-4" "T" 48 1 "R" 1 220389 2500 222895 "223103" "223103" 529 "<right>" "<right>" 1 1
"100-4-4" "T" 49 1 "L" 1 223642 2000 225647 "225853" "225854" 485 "<left>" "<left>" 1 1
"100-4-4" "T" 50 -1 "U" 2 226350 2000 228355 "228561" "228561" 548 "<up>" "<up>" 1 1
"101-1-1" "P" 0 1 "U" 2 48968 3500 52474 "52980" "52981" 761 "<up>" "<up>" 1 1
"101-1-1" "P" 0 1 "R" 2 53755 2000 55760 "56267" "56267" 679 "<right>" "<right>" 1 1
"101-1-1" "P" 0 -1 "R" 2 56966 2000 58971 "59476" "59477" 477 "<right>" "<right>" 1 1
"101-1-1" "P" 0 1 "U" 1 59977 2500 62481 "62988" "62989" 407 "<up>" "<up>" 1 1
"101-1-1" "P" 0 1 "D" 2 63420 2500 65926 "66431" "66431" 404 "<down>" "<up>" 0 1
"101-1-1" "P" 0 1 "D" 2 66860 3500 70365 "70872" "70872" 500 "<down>" "<down>" 1 1
"101-1-1" "P" 0 -1 "U" 1 71393 2250 73649 "74156" "74156" 406 "<up>" "<up>" 1 1
"101-1-1" "P" 0 1 "L" 2 74586 1500 76094 "76599" "76599" 524 "<left>" "<left>" 1 1
"101-1-1" "P" 0 -1 "R" 2 82280 3500 85786 "85992" "85992" 411 "<right>" "<right>" 1 1
"101-1-1" "P" 0 -1 "D" 1 86423 2250 88677 "88885" "88885" 525 "<down>" "<down>" 1 1
"101-1-1" "P" 0 -1 "D" 1 89423 1500 90927 "91132" "91133" 429 "<down>" "<down>" 1 1
"101-1-1" "P" 0 -1 "L" 2 91576 2500 94081 "94286" "94287" 415 "<left>" "<right>" 0 1
"101-1-1" "P" 0 1 "R" 1 94719 3500 98225 "98432" "98432" 512 "<right>" "<right>" 1 1
"101-1-1" "P" 0 1 "L" 2 98959 2250 101215 "101421" "101421" 518 "<left>" "<right>" 0 1
"101-1-1" "P" 0 1 "L" 1 101956 2250 104210 "104418" "104418" 517 "<left>" "<left>" 1 1
"101-1-1" "P" 0 -1 "L" 1 104954 2000 106959 "107167" "107167" 431 "<left>" "<left>" 1 1
"101-1-1" "T" 1 -1 "R" 1 111960 2250 114215 "114421" "114422" 436 "<right>" "<left>" 0 1
"101-1-1" "T" 2 1 "R" 1 114870 3000 117874 "118081" "118081" 420 "<right>" "<left>" 0 1
"101-1-1" "T" 3 -1 "U" 2 118517 2500 121021 "121228" "121228" 570 "<up>" "<down>" 0 1
"101-1-1" "T" 4 -1 "L" 2 121811 2000 123815 "124022" "124022" 533 "<left>" "<left>" 1 1
"101-1-1" "T" 5 1 "R" 1 124570 1750 126325 "126530" "126531" 456 "<right>" "<right>" 1 1
"101-1-1" "T" 6 -1 "D" 2 127001 3500 130507 "130714" "130715" 429 "<down>" "<down>" 1 1
"101-1-1" "T" 7 -1 "D" 2 131159 2750 133914 "134119" "134120" 501 "<down>" "<down>" 1 1
"101-1-1" "T" 8 -1 "R" 1 134637 2500 137141 "137346" "137346" 474 "<right>" "<right>" 1 1
"101-1-1" "T" 9 -1 "D" 2 137834 2000 139840 "140047" "140047" 502 "<down>" "<down>" 1 1
"101-1-1" "T" 10 -1 "D" 1 140564 2500 143069 "143276" "143276" 507 "<down>" "<down>" 1 1
"101-1-1" "T" 11 -1 "L" 1 143796 1750 145550 "145756" "145757" 440 "<left>" "<left>" 1 1
"101-1-1" "T" 12 -1 "D" 1 146211 2250 148468 "148675" "148675" 501 "<down>" "<down>" 1 1
"101-1-1" "T" 13 -1 "L" 1 149190 2250 151445 "151651" "151652" 402 "<left>" "<left>" 1 1
"101-1-1" "T" 14 -1 "R" 2 152084 2500 154589 "154794" "154795" 503 "<right>" "<right>" 1 1
"101-1-1" "T" 15 1 "D" 1 155313 3250 158569 "158775" "158776" 464 "<down>" "<down>" 1 1
"101-1-1" "T" 16 -1 "U" 2 159256 2000 161261 "161468" "161468" 452 "<up>" "<down>" 0 1
"101-1-1" "T" 17 -1 "U" 2 161936 3250 165191 "165398" "165398" 531 "<up>" "<up>" 1 1
"101-1-1" "T" 18 -1 "U" 2 165941 2000 167946 "168153" "168153" 546 "<up>" "<up>" 1 1
"101-1-1" "T" 19 -1 "D" 1 168715 1500 170221 "170428" "170428" 495 "<down>" "<down>" 1 1
"101-1-1" "T" 20 -1 "L" 1 170935 2750 173691 "173898" "173898" 447 "<left>" "<left>" 1 1
"101-1-1" "T" 21 -1 "D" 1 174359 1750 176113 "176318" "176319" 462 "<down>" "<down>" 1 1
"101-1-1" "T" 22 -1 "D" 1 176795 3500 180300 "180506" "180507" 454 "<down>" "<down>" 1 1
"101-1-1" "T" 23 -1 "D" 2 180973 1500 182478 "182683" "182684" 440 "<down>" "<down>" 1 1
"101-1-1" "T" 24 -1 "D" 1 183137 2750 185892 "186099" "186100" 415 "<down>" "<down>" 1 1
"101-1-1" "T" 25 1 "R" 1 186529 1750 188284 "188491" "188491" 462 "<right>" "<right>" 1 1
"101-1-1" "T" 26 -1 "U" 1 188965 2250 191219 "191424" "191425" 514 "<up>" "<up>" 1 1
"101-1-1" "T" 27 -1 "L" 1 191955 2250 194210 "194417" "194418" 512 "<left>" "<left>" 1 1
"101-1-1" "T" 28 -1 "U" 2 194941 3500 198447 "198654" "198655" 496 "<up>" "<up>" 1 1
"101-1-1" "T" 29 1 "D" 2 199164 3500 202668 "202876" "202876" 1001 "<down>" "<up>" 0 1
"101-1-1" "T" 30 1 "D" 1 203891 1750 205646 "205852" "205852" 507 "<down>" "<down>" 1 1
"101-1-1" "T" 31 1 "U" 1 206371 2000 208377 "208584" "208584" 632 "<up>" "<up>" 1 1
"101-1-1" "T" 32 1 "U" 1 209232 2000 211238 "211446" "211446" 457 "<up>" "<up>" 1 1
"101-1-1" "T" 33 1 "U" 1 211917 2750 214671 "214877" "214877" 396 "<up>" "<up>" 1 1
"101-1-1" "T" 34 -1 "L" 1 215290 2250 217546 "217753" "217753" 452 "<left>" "<left>" 1 1
"101-1-1" "T" 35 1 "U" 2 218219 1750 219974 "220179" "220179" 591 "<up>" "<up>" 1 1
"101-1-1" "T" 36 1 "L" 2 220786 2000 222791 "222998" "222998" 597 "<left>" "<left>" 1 1
"101-1-1" "T" 37 -1 "D" 2 223607 3500 227113 "227320" "227320" 681 "<down>" "<down>" 1 1
"101-1-1" "T" 38 1 "U" 1 228015 2000 230019 "230224" "230225" 566 "<up>" "<up>" 1 1
"101-1-1" "T" 39 1 "D" 2 230805 2250 233060 "233268" "233268" 860 "<down>" "<down>" 1 1
"101-1-1" "T" 40 1 "L" 2 234142 1750 235896 "236102" "236102" 545 "<left>" "<left>" 1 1
"101-1-1" "T" 41 1 "L" 2 236659 1750 238414 "238621" "238621" 584 "<left>" "<left>" 1 1
"101-1-1" "T" 42 -1 "R" 2 239219 3250 242475 "242682" "242682" 652 "<right>" "<right>" 1 1
"101-1-1" "T" 43 -1 "U" 1 243348 1500 244853 "245059" "245059" 525 "<up>" "<up>" 1 1
"101-1-1" "T" 44 -1 "U" 1 245597 2250 247852 "248058" "248058" 517 "<up>" "<up>" 1 1
"101-1-1" "T" 45 -1 "L" 1 248594 2000 250600 "250807" "250807" 460 "<left>" "<left>" 1 1
"101-1-1" "T" 46 -1 "R" 1 251277 2500 253781 "253986" "253987" 450 "<right>" "<left>" 0 1
"101-1-1" "T" 47 -1 "U" 2 254449 2250 256704 "256910" "256910" 605 "<up>" "<up>" 1 1
"101-1-1" "T" 48 -1 "D" 1 257542 1750 259296 "259503" "259503" 559 "<down>" "<down>" 1 1
"101-1-1" "T" 49 1 "D" 1 260076 2000 262080 "262285" "262286" 561 "<down>" "<down>" 1 1
"101-1-1" "T" 50 -1 "L" 1 262860 1750 264615 "264822" "264823" 454 "<left>" "<left>" 1 1
"101-1-2" "P" 0 1 "R" 2 25568 3500 29073 "29578" "29579" 564 "<right>" "<right>" 1 1
"101-1-2" "P" 0 1 "D" 1 30165 2750 32920 "33427" "33427" 478 "<down>" "<down>" 1 1
"101-1-2" "P" 0 1 "R" 2 33928 1750 35682 "36189" "36190" 609 "<right>" "<right>" 1 1
"101-1-2" "P" 0 1 "D" 1 36816 2000 38822 "39329" "39329" 495 "<down>" "<down>" 1 1
"101-1-2" "P" 0 1 "D" 1 39848 2000 41852 "42360" "42360" 484 "<down>" "<down>" 1 1
"101-1-2" "P" 0 1 "D" 1 42867 1750 44621 "45129" "45129" 358 "<down>" "<down>" 1 1
"101-1-2" "P" 0 -1 "R" 1 45511 2500 48016 "48521" "48522" 484 "<right>" "<right>" 1 1
"101-1-2" "P" 0 1 "U" 2 49030 3000 52035 "52542" "52542" 674 "<up>" "<up>" 1 1
"101-1-2" "P" 0 1 "R" 2 57221 3250 60476 "60683" "60683" 506 "<right>" "<right>" 1 1
"101-1-2" "P" 0 1 "L" 1 61209 3500 64714 "64919" "64919" 549 "<left>" "<left>" 1 1
"101-1-2" "P" 0 1 "D" 2 65480 3000 68484 "68689" "68690" 495 "<down>" "<down>" 1 1
"101-1-2" "P" 0 1 "L" 1 69201 1500 70707 "70914" "70914" 444 "<left>" "<left>" 1 1
"101-1-2" "P" 0 -1 "R" 2 71369 2000 73375 "73582" "73582" 491 "<right>" "<right>" 1 1
"101-1-2" "P" 0 1 "D" 2 74093 3500 77598 "77805" "77805" 576 "<down>" "<down>" 1 1
"101-1-2" "P" 0 -1 "D" 2 78393 2250 80649 "80856" "80857" 419 "<down>" "<down>" 1 1
"101-1-2" "P" 0 -1 "R" 1 81302 3250 84557 "84762" "84763" 552 "<right>" "<right>" 1 1
"101-1-2" "T" 1 1 "D" 1 88022 2750 90778 "90986" "90986" 459 "<down>" "<down>" 1 1
"101-1-2" "T" 2 -1 "L" 1 91458 3250 94714 "94921" "94922" 430 "<left>" "<left>" 1 1
"101-1-2" "T" 3 -1 "U" 1 95361 3250 98615 "98820" "98821" 548 "<up>" "<up>" 1 1
"101-1-2" "T" 4 -1 "L" 2 99385 3500 102890 "103097" "103097" 689 "<left>" "<left>" 1 1
"101-1-2" "T" 5 -1 "L" 1 103802 2250 106056 "106261" "106262" 457 "<left>" "<right>" 0 1
"101-1-2" "T" 6 -1 "L" 2 106740 1750 108494 "108700" "108700" 591 "<left>" "<left>" 1 1
"101-1-2" "T" 7 1 "R" 2 109305 1750 111060 "111267" "111267" 607 "<right>" "<right>" 1 1
"101-1-2" "T" 8 1 "R" 2 111888 2750 114643 "114848" "114849" 657 "<right>" "<right>" 1 1
"101-1-2" "T" 9 1 "R" 2 115518 3000 118523 "118730" "118730" 443 "<right>" "<right>" 1 1
"101-1-2" "T" 10 1 "R" 2 119193 1500 120697 "120904" "120905" 506 "<right>" "<right>" 1 1
"101-1-2" "T" 11 1 "R" 1 121425 2250 123682 "123888" "123889" 500 "<right>" "<right>" 1 1
"101-1-2" "T" 12 1 "D" 1 124402 3500 127906 "128111" "128112" 697 "<down>" "<down>" 1 1
"101-1-2" "T" 13 -1 "R" 2 128821 1750 130575 "130780" "130781" 488 "<right>" "<left>" 0 1
"101-1-2" "T" 14 1 "D" 2 131284 2000 133290 "133497" "133498" 501 "<down>" "<down>" 1 1
"101-1-2" "T" 15 1 "D" 1 134017 2000 136023 "136230" "136230" 1287 "<down>" "<down>" 1 1
"101-1-2" "T" 16 1 "L" 1 137529 1750 139285 "139492" "139492" 485 "<left>" "<left>" 1 1
"101-1-2" "T" 17 1 "R" 2 139990 1750 141746 "141953" "141953" 587 "<right>" "<right>" 1 1
"101-1-2" "T" 18 -1 "R" 1 142554 1500 144059 "144266" "144267" 475 "<right>" "<left>" 0 1
"101-1-2" "T" 19 -1 "R" 1 144764 2500 147269 "147475" "147475" 480 "<right>" "<left>" 0 1
"101-1-2" "T" 20 -1 "L" 2 147966 2250 150221 "150426" "150427" 585 "<left>" "<left>" 1 1
"101-1-2" "T" 21 -1 "R" 1 151026 2750 153781 "153986" "153987" 457 "<right>" "<left>" 0 1
"101-1-2" "T" 22 1 "D" 2 154462 3000 157468 "157675" "157676" 671 "<down>" "<down>" 1 1
"101-1-2" "T" 23 -1 "D" 1 158364 2250 160619 "160826" "160827" 471 "<down>" "<down>" 1 1
"101-1-2" "T" 24 1 "R" 2 161313 2750 164068 "164275" "164276" 545 "<right>" "<right>" 1 1
"101-1-2" "T" 25 -1 "R" 1 164837 3500 168342 "168548" "168549" 511 "<right>" "<right>" 1 1
"101-1-2" "T" 26 -1 "L" 2 169079 3500 172585 "172792" "172792" 615 "<left>" "<left>" 1 1
"101-1-2" "T" 27 1 "D" 2 173420 1750 175176 "175383" "175383" 489 "<down>" "<down>" 1 1
"101-1-2" "T" 28 1 "L" 1 175893 3500 179399 "179605" "179605" 626 "<left>" "<left>" 1 1
"101-1-2" "T" 29 1 "D" 2 180245 1500 181749 "181954" "181955" 506 "<down>" "<down>" 1 1
"101-1-2" "T" 30 1 "D" 1 182485 2500 184991 "185198" "185198" 453 "<down>" "<down>" 1 1
"101-1-2" "T" 31 -1 "L" 2 185666 2750 188421 "188627" "188627" 581 "<left>" "<left>" 1 1
"101-1-2" "T" 32 1 "L" 2 189228 2750 191982 "192188" "192189" 619 "<left>" "<left>" 1 1
"101-1-2" "T" 33 1 "D" 2 192825 3000 195831 "196038" "196038" 502 "<down>" "<down>" 1 1
"101-1-2" "T" 34 1 "U" 1 196557 1500 198063 "198270" "198270" 613 "<up>" "<up>" 1 1
"101-1-2" "T" 35 1 "L" 2 198898 2000 200904 "201110" "201111" 556 "<left>" "<left>" 1 1
"101-1-2" "T" 36 -1 "U" 2 201682 2500 204186 "204391" "204392" 575 "<up>" "<up>" 1 1
"101-1-2" "T" 37 -1 "U" 2 204982 3500 208486 "208692" "208693" 525 "<up>" "<up>" 1 1
"101-1-2" "T" 38 1 "L" 1 209239 3250 212494 "212700" "212700" 575 "<left>" "<left>" 1 1
"101-1-2" "T" 39 -1 "R" 2 213289 1750 215045 "215252" "215252" 485 "<right>" "<left>" 0 1
"101-1-2" "T" 40 1 "R" 2 215751 2500 218256 "218463" "218463" 594 "<right>" "<right>" 1 1
"101-1-2" "T" 41 -1 "U" 1 219069 3500 222574 "222781" "222781" 551 "<up>" "<up>" 1 1
"101-1-2" "T" 42 -1 "L" 1 223344 3500 226849 "227055" "227055" 580 "<left>" "<left>" 1 1
"101-1-2" "T" 43 -1 "L" 2 227649 2750 230405 "230612" "230613" 544 "<left>" "<left>" 1 1
"101-1-2" "T" 44 1 "D" 2 231169 3500 234673 "234878" "234879" 844 "<down>" "<down>" 1 1
"101-1-2" "T" 45 1 "U" 2 235734 2000 237739 "237944" "237945" 646 "<up>" "<up>" 1 1
"101-1-2" "T" 46 -1 "D" 2 238608 1500 240112 "240318" "240318" 732 "<down>" "<down>" 1 1
"101-1-2" "T" 47 1 "U" 1 241060 2500 243566 "243773" "243774" 591 "<up>" "<up>" 1 1
"101-1-2" "T" 48 -1 "L" 2 244379 3000 247384 "247591" "247591" 531 "<left>" "<left>" 1 1
"101-1-2" "T" 49 1 "D" 2 248140 2750 250896 "251103" "251104" 655 "<down>" "<down>" 1 1
"101-1-2" "T" 50 -1 "R" 2 251771 2250 254025 "254230" "254231" 563 "<right>" "<right>" 1 1
"101-1-3" "P" 0 -1 "U" 1 34841 3000 37846 "38352" "38352" 569 "<up>" "<up>" 1 1
"101-1-3" "P" 0 -1 "U" 2 38940 3250 42194 "42701" "42701" 708 "<up>" "<up>" 1 1
"101-1-3" "P" 0 -1 "R" 1 43422 2500 45928 "46433" "46434" 428 "<right>" "<right>" 1 1
"101-1-3" "P" 0 1 "L" 2 46885 2750 49641 "50147" "50148" 515 "<left>" "<left>" 1 1
"101-1-3" "P" 0 1 "L" 2 50680 3000 53685 "54192" "54192" 429 "<left>" "<left>" 1 1
"101-1-3" "P" 0 1 "R" 1 54643 2500 57148 "57655" "57655" 358 "<right>" "<left>" 0 1
"101-1-3" "P" 0 1 "R" 2 58035 2500 60542 "61049" "61049" 553 "<right>" "<right>" 1 1
"101-1-3" "P" 0 1 "U" 2 61620 3000 64625 "65133" "65133" 458 "<up>" "<up>" 1 1
"101-1-3" "P" 0 1 "D" 2 71856 2000 73860 "74067" "74067" 471 "<down>" "<up>" 0 1
"101-1-3" "P" 0 -1 "R" 1 74562 1500 76067 "76272" "76273" 539 "<right>" "<left>" 0 1
"101-1-3" "P" 0 -1 "D" 1 76827 1750 78581 "78786" "78787" 560 "<down>" "<down>" 1 1
"101-1-3" "P" 0 1 "L" 2 79367 3500 82872 "83079" "83080" 597 "<left>" "<left>" 1 1
"101-1-3" "P" 0 1 "D" 2 83691 2000 85696 "85901" "85902" 582 "<down>" "<down>" 1 1
"101-1-3" "P" 0 1 "L" 1 86500 3000 89506 "89713" "89713" 405 "<left>" "<left>" 1 1
"101-1-3" "P" 0 -1 "U" 2 90133 3000 93138 "93345" "93346" 501 "<up>" "<down>" 0 1
"101-1-3" "P" 0 1 "D" 1 93861 2000 95867 "96074" "96075" 538 "<down>" "<down>" 1 1
"101-1-3" "T" 1 1 "R" 1 99689 2000 101695 "101901" "101901" 472 "<right>" "<right>" 1 1
"101-1-3" "T" 2 1 "L" 1 102387 2250 104642 "104849" "104850" 445 "<left>" "<left>" 1 1
"101-1-3" "T" 3 1 "R" 1 105310 2500 107815 "108022" "108022" 531 "<right>" "<right>" 1 1
"101-1-3" "T" 4 1 "D" 2 108571 2750 111327 "111534" "111535" 508 "<down>" "<down>" 1 1
"101-1-3" "T" 5 1 "R" 1 112058 2250 114313 "114520" "114520" 482 "<right>" "<right>" 1 1
"101-1-3" "T" 6 1 "U" 2 115015 2250 117270 "117475" "117476" 611 "<up>" "<up>" 1 1
"101-1-3" "T" 7 1 "R" 2 118101 3000 121106 "121313" "121313" 490 "<right>" "<right>" 1 1
"101-1-3" "T" 8 1 "R" 1 121817 1750 123572 "123779" "123779" 496 "<right>" "<right>" 1 1
"101-1-3" "T" 9 -1 "D" 2 124290 2250 126546 "126753" "126753" 610 "<down>" "<down>" 1 1
"101-1-3" "T" 10 -1 "R" 2 127375 2500 129881 "130088" "130088" 590 "<right>" "<right>" 1 1
"101-1-3" "T" 11 -1 "L" 1 130692 2500 133197 "133403" "133403" 508 "<left>" "<left>" 1 1
"101-1-3" "T" 12 1 "L" 1 133928 1750 135683 "135888" "135889" 533 "<left>" "<right>" 0 1
"101-1-3" "T" 13 1 "U" 2 136442 3500 139946 "140153" "140154" 649 "<up>" "<up>" 1 1
"101-1-3" "T" 14 1 "U" 2 140818 3500 144323 "144528" "144529" 549 "<up>" "<up>" 1 1
"101-1-3" "T" 15 -1 "U" 2 145090 2750 147845 "148052" "148053" 522 "<up>" "<up>" 1 1
"101-1-3" "T" 16 1 "L" 1 148585 3250 151839 "152046" "152047" 460 "<left>" "<left>" 1 1
"101-1-3" "T" 17 -1 "U" 1 152527 2000 154531 "154736" "154737" 580 "<up>" "<up>" 1 1
"101-1-3" "T" 18 1 "U" 1 155327 2250 157581 "157786" "157787" 412 "<up>" "<up>" 1 1
"101-1-3" "T" 19 1 "L" 1 158221 3000 161226 "161433" "161433" 515 "<left>" "<left>" 1 1
"101-1-3" "T" 20 -1 "R" 2 161961 2500 164467 "164674" "164674" 510 "<right>" "<left>" 0 1
