subnum,stimtype,block,trialtype,trial,condition,stim,dim1,dim2,time0,resp1,rt1,corr1,resp2,rt2,corr2,tooslow
105-3-4,4,1,PRACTICE,-25,1,3,1,0,5898,1,493,1,NA,0,0,0
105-3-4,4,1,PRACTICE,-24,1,2,0,1,7309,2,456,1,NA,0,0,0
105-3-4,4,1,PRACTICE,-23,1,1,1,1,8977,1,359,1,NA,0,0,0
105-3-4,4,1,PRACTICE,-22,1,4,0,0,10628,2,448,1,NA,0,0,0
105-3-4,4,1,PRACTICE,-21,1,2,0,1,12240,2,429,1,NA,0,0,0
105-3-4,4,1,PRACTICE,-20,1,1,1,1,13611,1,332,1,NA,0,0,0
105-3-4,4,1,PRACTICE,-19,1,3,1,0,14913,1,609,1,NA,0,0,0
105-3-4,4,1,PRACTICE,-18,1,4,0,0,16481,2,363,1,NA,0,0,0
105-3-4,4,1,TEST,1,1,4,0,0,17914,2,358,1,NA,0,0,0
105-3-4,4,1,TEST,2,1,3,1,0,19141,1,365,1,NA,0,0,0
105-3-4,4,1,TEST,3,1,2,0,1,20768,2,430,1,NA,0,0,0
105-3-4,4,1,TEST,4,1,1,1,1,22168,1,398,1,NA,0,0,0
105-3-4,4,1,TEST,5,1,4,0,0,23744,2,363,1,NA,0,0,0
105-3-4,4,1,TEST,6,1,3,1,0,25351,1,335,1,NA,0,0,0
105-3-4,4,1,TEST,7,1,1,1,1,26923,1,392,1,NA,0,0,0
105-3-4,4,1,TEST,8,1,2,0,1,28489,2,433,1,NA,0,0,0
105-3-4,4,1,TEST,9,1,1,1,1,30243,1,286,1,NA,0,0,0
105-3-4,4,1,TEST,10,1,3,1,0,31697,1,654,1,NA,0,0,0
105-3-4,4,1,TEST,11,1,4,0,0,33370,2,384,1,NA,0,0,0
105-3-4,4,1,TEST,12,1,2,0,1,35028,2,418,1,NA,0,0,0
105-3-4,4,1,TEST,13,1,4,0,0,36313,2,408,1,NA,0,0,0
105-3-4,4,1,TEST,14,1,2,0,1,37616,2,342,1,NA,0,0,0
105-3-4,4,1,TEST,15,1,3,1,0,39037,1,374,1,NA,0,0,0
105-3-4,4,1,TEST,16,1,1,1,1,40253,1,405,1,NA,0,0,0
105-3-4,4,1,TEST,17,1,3,1,0,41641,2,330,0,NA,0,0,0
105-3-4,4,1,TEST,18,1,1,1,1,43475,1,311,1,NA,0,0,0
105-3-4,4,1,TEST,19,1,4,0,0,44960,2,380,1,NA,0,0,0
105-3-4,4,1,TEST,20,1,2,0,1,46297,2,510,1,NA,0,0,0
105-3-4,4,1,TEST,21,1,1,1,1,47831,1,376,1,NA,0,0,0
105-3-4,4,1,TEST,22,1,3,1,0,49075,1,354,1,NA,0,0,0
105-3-4,4,1,TEST,23,1,4,0,0,50528,2,391,1,NA,0,0,0
105-3-4,4,1,TEST,24,1,2,0,1,52042,2,372,1,NA,0,0,0
105-3-4,4,1,TEST,25,1,1,1,1,53559,1,459,1,NA,0,0,0
105-3-4,4,2,PRACTICE,-25,2,2,0,1,58183,NA,0,0,9,434,1,0
105-3-4,4,2,PRACTICE,-24,2,3,1,0,59682,NA,0,0,0,353,1,0
105-3-4,4,2,PRACTICE,-23,2,1,1,1,61133,NA,0,0,9,333,1,0
105-3-4,4,2,PRACTICE,-22,2,4,0,0,62419,NA,0,0,0,387,1,0
105-3-4,4,2,PRACTICE,-21,2,1,1,1,64124,NA,0,0,9,344,1,0
105-3-4,4,2,PRACTICE,-20,2,2,0,1,65766,NA,0,0,9,385,1,0
105-3-4,4,2,PRACTICE,-19,2,3,1,0,67473,NA,0,0,0,338,1,0
105-3-4,4,2,PRACTICE,-18,2,4,0,0,68872,NA,0,0,0,372,1,0
105-3-4,4,2,TEST,1,2,1,1,1,70271,NA,0,0,9,392,1,0
105-3-4,4,2,TEST,2,2,2,0,1,71660,NA,0,0,9,318,1,0
105-3-4,4,2,TEST,3,2,3,1,0,72938,NA,0,0,0,367,1,0
105-3-4,4,2,TEST,4,2,4,0,0,74146,NA,0,0,0,383,1,0
105-3-4,4,2,TEST,5,2,3,1,0,75527,NA,0,0,0,380,1,0
105-3-4,4,2,TEST,6,2,4,0,0,76962,NA,0,0,0,406,1,0
105-3-4,4,2,TEST,7,2,1,1,1,78592,NA,0,0,9,354,1,0
105-3-4,4,2,TEST,8,2,2,0,1,80141,NA,0,0,9,272,1,0
105-3-4,4,2,TEST,9,2,3,1,0,81561,NA,0,0,0,440,1,0
105-3-4,4,2,TEST,10,2,4,0,0,83047,NA,0,0,0,547,1,0
105-3-4,4,2,TEST,11,2,1,1,1,84762,NA,0,0,9,352,1,0
105-3-4,4,2,TEST,12,2,2,0,1,86006,NA,0,0,9,566,1,0
105-3-4,4,2,TEST,13,2,3,1,0,87670,NA,0,0,0,324,1,0
105-3-4,4,2,TEST,14,2,2,0,1,89120,NA,0,0,9,354,1,0
105-3-4,4,2,TEST,15,2,4,0,0,90485,NA,0,0,0,426,1,0
105-3-4,4,2,TEST,16,2,1,1,1,91879,NA,0,0,9,396,1,0
105-3-4,4,2,TEST,17,2,3,1,0,93238,NA,0,0,0,410,1,0
105-3-4,4,2,TEST,18,2,2,0,1,94628,NA,0,0,9,344,1,0
105-3-4,4,2,TEST,19,2,1,1,1,95859,NA,0,0,9,451,1,0
105-3-4,4,2,TEST,20,2,4,0,0,97530,NA,0,0,0,595,1,0
105-3-4,4,2,TEST,21,2,2,0,1,99136,NA,0,0,9,350,1,0
105-3-4,4,2,TEST,22,2,4,0,0,100614,NA,0,0,0,339,1,0
105-3-4,4,2,TEST,23,2,3,1,0,101913,NA,0,0,0,378,1,0
105-3-4,4,2,TEST,24,2,1,1,1,103495,NA,0,0,9,344,1,0
105-3-4,4,2,TEST,25,2,3,1,0,104999,NA,0,0,0,412,1,0
105-3-4,4,3,PRACTICE,-25,3,1,1,1,112917,1,464,1,9,486,1,0
105-3-4,4,3,PRACTICE,-24,3,4,0,0,114680,2,356,1,0,368,1,0
105-3-4,4,3,PRACTICE,-23,3,2,0,1,116300,2,433,1,9,437,1,0
105-3-4,4,3,PRACTICE,-22,3,3,1,0,118015,1,397,1,0,381,1,0
105-3-4,4,3,PRACTICE,-21,3,3,1,0,119422,1,488,1,0,472,1,0
105-3-4,4,3,PRACTICE,-20,3,1,1,1,121149,1,490,1,9,487,1,0
105-3-4,4,3,PRACTICE,-19,3,2,0,1,122947,2,528,1,9,516,1,0
105-3-4,4,3,PRACTICE,-18,3,4,0,0,124371,2,377,1,0,351,1,0
105-3-4,4,3,TEST,1,3,2,0,1,126081,2,443,1,9,439,1,0
105-3-4,4,3,TEST,2,3,4,0,0,127790,2,408,1,0,416,1,0
105-3-4,4,3,TEST,3,3,3,1,0,129197,1,453,1,0,457,1,0
105-3-4,4,3,TEST,4,3,1,1,1,130644,1,438,1,9,432,1,0
105-3-4,4,3,TEST,5,3,3,1,0,132102,2,438,0,0,448,1,0
105-3-4,4,3,TEST,6,3,2,0,1,133909,2,594,1,9,556,1,0
105-3-4,4,3,TEST,7,3,4,0,0,135783,2,544,1,0,532,1,0
105-3-4,4,3,TEST,8,3,1,1,1,137614,1,464,1,9,468,1,0
105-3-4,4,3,TEST,9,3,3,1,0,138976,1,502,1,0,486,1,0
105-3-4,4,3,TEST,10,3,2,0,1,140538,2,422,1,9,428,1,0
105-3-4,4,3,TEST,11,3,4,0,0,142281,2,442,1,0,502,1,0
105-3-4,4,3,TEST,12,3,1,1,1,143744,1,553,1,9,503,1,0
105-3-4,4,3,TEST,13,3,2,0,1,145344,2,422,1,9,426,1,0
105-3-4,4,3,TEST,14,3,3,1,0,146865,1,477,1,0,473,1,0
105-3-4,4,3,TEST,15,3,4,0,0,148495,2,470,1,0,548,1,0
105-3-4,4,3,TEST,16,3,1,1,1,150316,1,433,1,9,443,1,0
105-3-4,4,3,TEST,17,3,3,1,0,151860,2,488,0,0,501,1,0
105-3-4,4,3,TEST,18,3,1,1,1,154006,1,484,1,9,518,1,0
105-3-4,4,3,TEST,19,3,2,0,1,155416,2,477,1,9,470,1,0
105-3-4,4,3,TEST,20,3,4,0,0,157215,2,515,1,0,499,1,0
105-3-4,4,3,TEST,21,3,2,0,1,159006,1,522,0,9,514,1,0
105-3-4,4,3,TEST,22,3,4,0,0,161222,2,516,1,0,508,1,0
105-3-4,4,3,TEST,23,3,1,1,1,162599,1,721,1,9,689,1,0
105-3-4,4,3,TEST,24,3,3,1,0,164396,1,497,1,0,469,1,0
105-3-4,4,3,TEST,25,3,4,0,0,166036,2,490,1,0,474,1,0
