subnum,block,trial,direction,stim,offset,fixationstart,delaytime,promptstart,arrowstart,maskstart,rt,corresp,resp,corr,bivalentcorr
103-1-2,P,0,-1,L,2,24025,1750,25781,26286,26287,991,<left>,<left>,1,1
103-1-2,P,0,-1,R,1,27296,1500,28801,29307,29308,833,<right>,<right>,1,1
103-1-2,P,0,-1,U,1,30157,3000,33163,33669,33670,721,<up>,<up>,1,1
103-1-2,P,0,-1,L,2,34407,2000,36412,36918,36919,721,<left>,<left>,1,1
103-1-2,P,0,-1,L,1,37654,2750,40409,40915,40916,621,<left>,<left>,1,1
103-1-2,P,0,-1,L,2,41551,2750,44306,44812,44813,618,<left>,<left>,1,1
103-1-2,P,0,-1,D,2,45449,3250,48704,49209,49209,837,<down>,<down>,1,1
103-1-2,P,0,1,L,1,50062,2000,52067,52573,52574,737,<left>,<left>,1,1
103-1-2,P,0,1,D,2,57957,2000,59963,60168,60169,723,<down>,<down>,1,1
103-1-2,P,0,1,D,1,60907,2000,62913,63120,63120,578,<down>,<down>,1,1
103-1-2,P,0,-1,R,1,63711,3250,66965,67172,67173,779,<right>,<right>,1,1
103-1-2,P,0,-1,L,2,67965,1500,69471,69678,69678,666,<left>,<left>,1,1
103-1-2,P,0,-1,D,1,70355,1500,71860,72067,72067,632,<down>,<down>,1,1
103-1-2,P,0,-1,U,1,72716,2500,75221,75428,75428,603,<up>,<up>,1,1
103-1-2,P,0,1,R,2,76045,2000,78050,78257,78257,688,<right>,<right>,1,1
103-1-2,P,0,1,R,1,78958,1500,80464,80671,80671,570,<right>,<right>,1,1
103-1-2,T,1,1,D,2,85184,2250,87440,87647,87647,785,<down>,<down>,1,1
103-1-2,T,2,-1,L,1,88443,1750,90197,90405,90405,615,<left>,<left>,1,1
103-1-2,T,3,-1,D,2,91038,1500,92543,92749,92750,783,<down>,<down>,1,1
103-1-2,T,4,1,D,1,93546,2000,95551,95756,95757,652,<down>,<down>,1,1
103-1-2,T,5,-1,R,2,96422,2500,98929,99136,99136,833,<right>,<right>,1,1
103-1-2,T,6,1,U,1,99982,3000,102988,103195,103195,753,<up>,<up>,1,1
103-1-2,T,7,1,L,1,103961,2250,106215,106421,106422,656,<left>,<left>,1,1
103-1-2,T,8,1,D,1,107094,3000,110098,110305,110306,580,<down>,<down>,1,1
103-1-2,T,9,1,D,2,110905,1500,112410,112617,112618,634,<down>,<down>,1,1
103-1-2,T,10,1,D,1,113265,2000,115270,115475,115475,561,<down>,<down>,1,1
103-1-2,T,11,-1,U,2,116049,3000,119055,119262,119262,702,<up>,<up>,1,1
103-1-2,T,12,1,R,2,119978,3000,122983,123189,123190,652,<right>,<right>,1,1
103-1-2,T,13,1,L,1,123856,1750,125610,125815,125816,697,<left>,<left>,1,1
103-1-2,T,14,1,L,1,126528,2750,129283,129490,129490,620,<left>,<left>,1,1
103-1-2,T,15,1,U,2,130124,1500,131629,131834,131834,726,<up>,<up>,1,1
103-1-2,T,16,-1,L,2,132573,2500,135078,135285,135285,573,<left>,<left>,1,1
103-1-2,T,17,-1,U,2,135872,1750,137627,137834,137834,684,<up>,<up>,1,1
103-1-2,T,18,-1,U,1,138535,2000,140540,140746,140746,587,<up>,<up>,1,1
103-1-2,T,19,1,D,2,141348,2500,143854,144061,144061,858,<down>,<down>,1,1
103-1-2,T,20,1,D,2,144932,2000,146938,147144,147145,604,<down>,<down>,1,1
103-1-2,T,21,-1,D,2,147766,1750,149520,149727,149728,1524,<down>,<up>,0,1
103-1-2,T,22,1,D,2,151267,2500,153773,153980,153980,656,<down>,<down>,1,1
103-1-2,T,23,-1,R,1,154651,2000,156657,156864,156864,659,<right>,<right>,1,1
103-1-2,T,24,-1,R,1,157534,1750,159288,159493,159494,728,<right>,<right>,1,1
103-1-2,T,25,1,D,1,160231,3500,163737,163942,163943,677,<down>,<down>,1,1
103-1-2,T,26,-1,U,2,164636,2250,166890,167097,167098,674,<up>,<up>,1,1
103-1-2,T,27,1,R,1,167787,2250,170043,170250,170250,638,<right>,<right>,1,1
103-1-2,T,28,-1,U,2,170910,2500,173416,173622,173623,681,<up>,<up>,1,1
103-1-2,T,29,1,D,1,174315,2000,176321,176528,176528,929,<down>,<down>,1,1
103-1-2,T,30,-1,L,1,177470,2750,180225,180430,180430,732,<left>,<left>,1,1
103-1-2,T,31,1,L,2,181174,2500,183679,183886,183886,708,<left>,<left>,1,1
103-1-2,T,32,-1,U,2,184611,2750,187366,187572,187572,968,<up>,<down>,0,1
103-1-2,T,33,-1,R,2,188557,2750,191312,191517,191518,758,<right>,<right>,1,1
103-1-2,T,34,1,L,1,192290,1500,193795,194001,194002,725,<left>,<left>,1,1
103-1-2,T,35,1,L,2,194740,2750,197495,197700,197701,586,<left>,<left>,1,1
103-1-2,T,36,-1,R,1,198299,3250,201553,201758,201759,693,<right>,<right>,1,1
103-1-2,T,37,1,L,1,202465,1500,203970,204175,204176,578,<left>,<left>,1,1
103-1-2,T,38,1,R,2,204774,1750,206530,206737,206737,741,<right>,<right>,1,1
103-1-2,T,39,1,U,1,207494,2000,209500,209707,209707,653,<up>,<up>,1,1
103-1-2,T,40,-1,L,1,210373,1500,211877,212085,212085,689,<left>,<left>,1,1
103-1-2,T,41,-1,R,1,212797,1750,214552,214757,214757,631,<right>,<right>,1,1
103-1-2,T,42,-1,D,1,215413,3000,218419,218626,218626,795,<down>,<down>,1,1
103-1-2,T,43,-1,L,2,219431,2500,221935,222142,222142,722,<left>,<left>,1,1
103-1-2,T,44,-1,D,1,222876,1500,224381,224588,224588,650,<down>,<down>,1,1
103-1-2,T,45,-1,U,1,225253,3500,228758,228966,228966,675,<up>,<up>,1,1
103-1-2,T,46,1,U,2,229652,2000,231656,231861,231861,738,<up>,<up>,1,1
103-1-2,T,47,1,L,2,232611,3250,235867,236073,236074,1408,<left>,<left>,1,1
103-1-2,T,48,1,D,2,237501,3500,241008,241213,241214,739,<down>,<down>,1,1
103-1-2,T,49,-1,D,2,241967,2250,244222,244430,244430,768,<down>,<down>,1,1
103-1-2,T,50,1,D,2,245213,2500,247718,247923,247924,573,<down>,<down>,1,1
