subnum,stimtype,block,trialtype,trial,condition,stim,dim1,dim2,time0,resp1,rt1,corr1,resp2,rt2,corr2,tooslow
105-1-1,4,1,PRACTICE,-25,1,2,0,1,108203,2,1348,1,NA,0,0,0
105-1-1,4,1,PRACTICE,-24,1,1,1,1,110471,1,513,1,NA,0,0,0
105-1-1,4,1,PRACTICE,-23,1,4,0,0,112243,2,442,1,NA,0,0,0
105-1-1,4,1,PRACTICE,-22,1,3,1,0,113904,1,385,1,NA,0,0,0
105-1-1,4,1,PRACTICE,-21,1,2,0,1,115449,2,477,1,NA,0,0,0
105-1-1,4,1,PRACTICE,-20,1,3,1,0,117211,1,447,1,NA,0,0,0
105-1-1,4,1,PRACTICE,-19,1,1,1,1,118619,1,458,1,NA,0,0,0
105-1-1,4,1,PRACTICE,-18,1,4,0,0,120406,2,516,1,NA,0,0,0
105-1-1,4,1,TEST,1,1,2,0,1,122113,2,444,1,NA,0,0,0
105-1-1,4,1,TEST,2,1,4,0,0,123585,2,427,1,NA,0,0,0
105-1-1,4,1,TEST,3,1,1,1,1,125312,1,407,1,NA,0,0,0
105-1-1,4,1,TEST,4,1,3,1,0,127011,1,528,1,NA,0,0,0
105-1-1,4,1,TEST,5,1,2,0,1,128630,2,429,1,NA,0,0,0
105-1-1,4,1,TEST,6,1,3,1,0,130259,1,343,1,NA,0,0,0
105-1-1,4,1,TEST,7,1,1,1,1,131772,1,375,1,NA,0,0,0
105-1-1,4,1,TEST,8,1,4,0,0,133329,2,352,1,NA,0,0,0
105-1-1,4,1,TEST,9,1,2,0,1,134781,2,422,1,NA,0,0,0
105-1-1,4,1,TEST,10,1,3,1,0,136241,1,342,1,NA,0,0,0
105-1-1,4,1,TEST,11,1,4,0,0,137891,2,362,1,NA,0,0,0
105-1-1,4,1,TEST,12,1,1,1,1,139278,1,348,1,NA,0,0,0
105-1-1,4,1,TEST,13,1,3,1,0,140867,1,361,1,NA,0,0,0
105-1-1,4,1,TEST,14,1,2,0,1,142163,2,508,1,NA,0,0,0
105-1-1,4,1,TEST,15,1,4,0,0,143953,2,407,1,NA,0,0,0
105-1-1,4,1,TEST,16,1,1,1,1,145189,1,394,1,NA,0,0,0
105-1-1,4,1,TEST,17,1,4,0,0,146573,2,321,1,NA,0,0,0
105-1-1,4,1,TEST,18,1,3,1,0,147968,1,350,1,NA,0,0,0
105-1-1,4,1,TEST,19,1,1,1,1,149171,1,351,1,NA,0,0,0
105-1-1,4,1,TEST,20,1,2,0,1,150659,2,412,1,NA,0,0,0
105-1-1,4,1,TEST,21,1,1,1,1,152151,1,364,1,NA,0,0,0
105-1-1,4,1,TEST,22,1,2,0,1,153695,2,349,1,NA,0,0,0
105-1-1,4,1,TEST,23,1,4,0,0,154986,2,378,1,NA,0,0,0
105-1-1,4,1,TEST,24,1,3,1,0,156521,1,308,1,NA,0,0,0
105-1-1,4,1,TEST,25,1,4,0,0,157996,2,392,1,NA,0,0,0
105-1-1,4,2,PRACTICE,-25,2,2,0,1,172175,NA,0,0,9,776,1,0
105-1-1,4,2,PRACTICE,-24,2,1,1,1,173851,NA,0,0,9,423,1,0
105-1-1,4,2,PRACTICE,-23,2,3,1,0,175184,NA,0,0,0,426,1,0
105-1-1,4,2,PRACTICE,-22,2,4,0,0,176540,NA,0,0,0,331,1,0
105-1-1,4,2,PRACTICE,-21,2,1,1,1,177862,NA,0,0,9,426,1,0
105-1-1,4,2,PRACTICE,-20,2,3,1,0,179290,NA,0,0,0,375,1,0
105-1-1,4,2,PRACTICE,-19,2,4,0,0,180563,NA,0,0,0,328,1,0
105-1-1,4,2,PRACTICE,-18,2,2,0,1,181994,NA,0,0,9,290,1,0
105-1-1,4,2,TEST,1,2,1,1,1,183341,NA,0,0,9,488,1,0
105-1-1,4,2,TEST,2,2,3,1,0,184823,NA,0,0,0,385,1,0
105-1-1,4,2,TEST,3,2,2,0,1,186289,NA,0,0,9,396,1,0
105-1-1,4,2,TEST,4,2,4,0,0,187736,NA,0,0,0,362,1,0
105-1-1,4,2,TEST,5,2,2,0,1,189000,NA,0,0,9,371,1,0
105-1-1,4,2,TEST,6,2,1,1,1,190303,NA,0,0,9,306,1,0
105-1-1,4,2,TEST,7,2,4,0,0,191933,NA,0,0,0,416,1,0
105-1-1,4,2,TEST,8,2,3,1,0,193672,NA,0,0,0,377,1,0
105-1-1,4,2,TEST,9,2,2,0,1,195209,NA,0,0,9,400,1,0
105-1-1,4,2,TEST,10,2,4,0,0,196912,NA,0,0,0,365,1,0
105-1-1,4,2,TEST,11,2,1,1,1,198481,NA,0,0,9,334,1,0
105-1-1,4,2,TEST,12,2,3,1,0,200098,NA,0,0,0,638,1,0
105-1-1,4,2,TEST,13,2,1,1,1,201910,NA,0,0,9,371,1,0
105-1-1,4,2,TEST,14,2,3,1,0,203252,NA,0,0,0,788,1,0
105-1-1,4,2,TEST,15,2,4,0,0,205319,NA,0,0,0,517,1,0
105-1-1,4,2,TEST,16,2,2,0,1,206937,NA,0,0,9,409,1,0
105-1-1,4,2,TEST,17,2,4,0,0,208509,NA,0,0,0,406,1,0
105-1-1,4,2,TEST,18,2,1,1,1,209856,NA,0,0,9,408,1,0
105-1-1,4,2,TEST,19,2,3,1,0,211588,NA,0,0,0,334,1,0
105-1-1,4,2,TEST,20,2,2,0,1,212807,NA,0,0,9,323,1,0
105-1-1,4,2,TEST,21,2,3,1,0,214405,NA,0,0,0,291,1,0
105-1-1,4,2,TEST,22,2,1,1,1,215708,NA,0,0,9,309,1,0
105-1-1,4,2,TEST,23,2,2,0,1,216915,NA,0,0,9,372,1,0
105-1-1,4,2,TEST,24,2,4,0,0,218521,NA,0,0,0,342,1,0
105-1-1,4,2,TEST,25,2,1,1,1,219966,NA,0,0,9,323,1,0
105-1-1,4,3,PRACTICE,-25,3,2,0,1,229178,2,858,1,9,1255,1,0
105-1-1,4,3,PRACTICE,-24,3,4,0,0,231733,2,774,1,0,825,1,0
105-1-1,4,3,PRACTICE,-23,3,1,1,1,233695,1,594,1,9,648,1,0
105-1-1,4,3,PRACTICE,-22,3,3,1,0,235207,1,893,1,0,964,1,0
105-1-1,4,3,PRACTICE,-21,3,1,1,1,237311,1,936,1,9,992,1,0
105-1-1,4,3,PRACTICE,-20,3,2,0,1,239454,2,780,1,9,821,1,0
105-1-1,4,3,PRACTICE,-19,3,3,1,0,241474,1,593,1,0,605,1,0
105-1-1,4,3,PRACTICE,-18,3,4,0,0,243313,2,602,1,0,676,1,0
105-1-1,4,3,TEST,1,3,4,0,0,245108,2,473,1,0,546,1,0
105-1-1,4,3,TEST,2,3,3,1,0,246794,1,650,1,0,840,1,0
105-1-1,4,3,TEST,3,3,2,0,1,248503,2,550,1,9,565,1,0
105-1-1,4,3,TEST,4,3,1,1,1,250179,1,560,1,9,542,1,0
105-1-1,4,3,TEST,5,3,4,0,0,251691,2,439,1,0,443,1,0
105-1-1,4,3,TEST,6,3,2,0,1,253120,2,617,1,9,606,1,0
105-1-1,4,3,TEST,7,3,1,1,1,254903,1,624,1,9,618,1,0
105-1-1,4,3,TEST,8,3,3,1,0,256713,1,674,1,0,654,1,0
105-1-1,4,3,TEST,9,3,2,0,1,258370,2,508,1,9,504,1,0
105-1-1,4,3,TEST,10,3,1,1,1,259986,1,468,1,9,462,1,0
105-1-1,4,3,TEST,11,3,3,1,0,261666,1,465,1,0,460,1,0
105-1-1,4,3,TEST,12,3,4,0,0,263266,2,510,1,0,525,1,0
105-1-1,4,3,TEST,13,3,1,1,1,264731,1,491,1,9,495,1,0
105-1-1,4,3,TEST,14,3,3,1,0,266127,1,506,1,0,491,1,0
105-1-1,4,3,TEST,15,3,4,0,0,267968,2,427,1,0,421,1,0
105-1-1,4,3,TEST,16,3,2,0,1,269637,2,430,1,9,434,1,0
105-1-1,4,3,TEST,17,3,4,0,0,271275,2,574,1,0,562,1,0
105-1-1,4,3,TEST,18,3,2,0,1,272900,2,488,1,9,478,1,0
105-1-1,4,3,TEST,19,3,3,1,0,274694,1,446,1,0,442,1,0
105-1-1,4,3,TEST,20,3,1,1,1,276050,1,397,1,9,393,1,0
105-1-1,4,3,TEST,21,3,3,1,0,277324,1,619,1,0,437,1,0
105-1-1,4,3,TEST,22,3,2,0,1,279226,2,432,1,9,440,1,0
105-1-1,4,3,TEST,23,3,4,0,0,280703,2,405,1,0,413,1,0
105-1-1,4,3,TEST,24,3,1,1,1,282097,1,555,1,9,585,1,0
105-1-1,4,3,TEST,25,3,3,1,0,283539,2,449,0,0,445,1,0
