subnum,stimtype,block,trialtype,trial,condition,stim,dim1,dim2,time0,resp1,rt1,corr1,resp2,rt2,corr2,tooslow
104-4-1,4,1,PRACTICE,-25,1,3,1,0,8257,1,518,1,NA,0,0,0
104-4-1,4,1,PRACTICE,-24,1,4,0,0,10079,2,368,1,NA,0,0,0
104-4-1,4,1,PRACTICE,-23,1,1,1,1,11538,1,544,1,NA,0,0,0
104-4-1,4,1,PRACTICE,-22,1,2,0,1,13080,2,388,1,NA,0,0,0
104-4-1,4,1,PRACTICE,-21,1,4,0,0,14492,2,400,1,NA,0,0,0
104-4-1,4,1,PRACTICE,-20,1,1,1,1,16170,1,477,1,NA,0,0,0
104-4-1,4,1,PRACTICE,-19,1,2,0,1,17650,2,414,1,NA,0,0,0
104-4-1,4,1,PRACTICE,-18,1,3,1,0,19179,1,398,1,NA,0,0,0
104-4-1,4,1,TEST,1,1,2,0,1,20497,2,376,1,NA,0,0,0
104-4-1,4,1,TEST,2,1,4,0,0,21761,2,474,1,NA,0,0,0
104-4-1,4,1,TEST,3,1,3,1,0,23497,1,444,1,NA,0,0,0
104-4-1,4,1,TEST,4,1,1,1,1,24812,1,394,1,NA,0,0,0
104-4-1,4,1,TEST,5,1,2,0,1,26138,2,392,1,NA,0,0,0
104-4-1,4,1,TEST,6,1,1,1,1,27536,1,458,1,NA,0,0,0
104-4-1,4,1,TEST,7,1,4,0,0,28977,2,298,1,NA,0,0,0
104-4-1,4,1,TEST,8,1,3,1,0,30502,1,476,1,NA,0,0,0
104-4-1,4,1,TEST,9,1,4,0,0,31861,2,423,1,NA,0,0,0
104-4-1,4,1,TEST,10,1,3,1,0,33536,1,326,1,NA,0,0,0
104-4-1,4,1,TEST,11,1,1,1,1,34761,1,406,1,NA,0,0,0
104-4-1,4,1,TEST,12,1,2,0,1,36299,2,345,1,NA,0,0,0
104-4-1,4,1,TEST,13,1,1,1,1,37959,1,485,1,NA,0,0,0
104-4-1,4,1,TEST,14,1,2,0,1,39571,2,323,1,NA,0,0,0
104-4-1,4,1,TEST,15,1,3,1,0,41213,1,565,1,NA,0,0,0
104-4-1,4,1,TEST,16,1,4,0,0,42648,2,369,1,NA,0,0,0
104-4-1,4,1,TEST,17,1,3,1,0,43974,1,406,1,NA,0,0,0
104-4-1,4,1,TEST,18,1,1,1,1,45358,2,379,0,NA,0,0,0
104-4-1,4,1,TEST,19,1,4,0,0,47205,2,466,1,NA,0,0,0
104-4-1,4,1,TEST,20,1,2,0,1,48616,2,424,1,NA,0,0,0
104-4-1,4,1,TEST,21,1,3,1,0,50189,1,454,1,NA,0,0,0
104-4-1,4,1,TEST,22,1,2,0,1,51616,2,394,1,NA,0,0,0
104-4-1,4,1,TEST,23,1,4,0,0,52912,2,447,1,NA,0,0,0
104-4-1,4,1,TEST,24,1,1,1,1,54336,1,371,1,NA,0,0,0
104-4-1,4,1,TEST,25,1,3,1,0,55892,1,348,1,NA,0,0,0
104-4-1,4,2,PRACTICE,-25,2,1,1,1,60100,NA,0,0,9,406,1,0
104-4-1,4,2,PRACTICE,-24,2,4,0,0,61372,NA,0,0,0,315,1,0
104-4-1,4,2,PRACTICE,-23,2,3,1,0,62954,NA,0,0,0,418,1,0
104-4-1,4,2,PRACTICE,-22,2,2,0,1,64396,NA,0,0,9,317,1,0
104-4-1,4,2,PRACTICE,-21,2,4,0,0,65555,NA,0,0,0,348,1,0
104-4-1,4,2,PRACTICE,-20,2,3,1,0,66849,NA,0,0,0,415,1,0
104-4-1,4,2,PRACTICE,-19,2,1,1,1,68452,NA,0,0,9,362,1,0
104-4-1,4,2,PRACTICE,-18,2,2,0,1,69649,NA,0,0,9,494,1,0
104-4-1,4,2,TEST,1,2,3,1,0,71035,NA,0,0,0,361,1,0
104-4-1,4,2,TEST,2,2,1,1,1,72575,NA,0,0,9,355,1,0
104-4-1,4,2,TEST,3,2,4,0,0,73843,NA,0,0,0,406,1,0
104-4-1,4,2,TEST,4,2,2,0,1,75561,NA,0,0,9,339,1,0
104-4-1,4,2,TEST,5,2,4,0,0,76937,NA,0,0,0,422,1,0
104-4-1,4,2,TEST,6,2,3,1,0,78620,NA,0,0,0,406,1,0
104-4-1,4,2,TEST,7,2,1,1,1,80048,NA,0,0,9,368,1,0
104-4-1,4,2,TEST,8,2,2,0,1,81717,NA,0,0,9,376,1,0
104-4-1,4,2,TEST,9,2,4,0,0,82963,NA,0,0,0,394,1,0
104-4-1,4,2,TEST,10,2,2,0,1,84416,NA,0,0,9,308,1,0
104-4-1,4,2,TEST,11,2,3,1,0,85902,NA,0,0,0,384,1,0
104-4-1,4,2,TEST,12,2,1,1,1,87580,NA,0,0,9,349,1,0
104-4-1,4,2,TEST,13,2,2,0,1,89070,NA,0,0,9,529,1,0
104-4-1,4,2,TEST,14,2,3,1,0,90444,NA,0,0,0,402,1,0
104-4-1,4,2,TEST,15,2,1,1,1,92132,NA,0,0,9,346,1,0
104-4-1,4,2,TEST,16,2,4,0,0,93685,NA,0,0,0,364,1,0
104-4-1,4,2,TEST,17,2,2,0,1,95293,NA,0,0,9,357,1,0
104-4-1,4,2,TEST,18,2,3,1,0,96534,NA,0,0,0,376,1,0
104-4-1,4,2,TEST,19,2,1,1,1,97886,NA,0,0,9,304,1,0
104-4-1,4,2,TEST,20,2,4,0,0,99325,NA,0,0,0,337,1,0
104-4-1,4,2,TEST,21,2,2,0,1,100870,NA,0,0,9,377,1,0
104-4-1,4,2,TEST,22,2,4,0,0,102270,NA,0,0,0,462,1,0
104-4-1,4,2,TEST,23,2,3,1,0,103891,NA,0,0,0,424,1,0
104-4-1,4,2,TEST,24,2,1,1,1,105571,NA,0,0,9,370,1,0
104-4-1,4,2,TEST,25,2,2,0,1,107020,NA,0,0,9,282,1,0
104-4-1,4,3,PRACTICE,-25,3,2,0,1,111322,2,568,1,9,588,1,0
104-4-1,4,3,PRACTICE,-24,3,3,1,0,112904,1,392,1,0,376,1,0
104-4-1,4,3,PRACTICE,-23,3,4,0,0,114382,2,592,1,0,586,1,0
104-4-1,4,3,PRACTICE,-22,3,1,1,1,116050,1,328,1,9,314,1,0
104-4-1,4,3,PRACTICE,-21,3,2,0,1,117557,2,550,1,9,512,1,0
104-4-1,4,3,PRACTICE,-20,3,3,1,0,119415,1,442,1,0,416,1,0
104-4-1,4,3,PRACTICE,-19,3,1,1,1,120782,1,382,1,9,391,1,0
104-4-1,4,3,PRACTICE,-18,3,4,0,0,122082,2,322,1,0,331,1,0
104-4-1,4,3,TEST,1,3,4,0,0,123522,2,639,1,0,633,1,0
104-4-1,4,3,TEST,2,3,2,0,1,125001,2,452,1,9,428,1,0
104-4-1,4,3,TEST,3,3,1,1,1,126375,1,575,1,9,579,1,0
104-4-1,4,3,TEST,4,3,3,1,0,128200,1,253,1,0,265,1,0
104-4-1,4,3,TEST,5,3,4,0,0,129665,2,513,1,0,517,1,0
104-4-1,4,3,TEST,6,3,2,0,1,131182,2,479,1,9,457,1,0
104-4-1,4,3,TEST,7,3,1,1,1,132736,1,670,1,9,687,1,0
104-4-1,4,3,TEST,8,3,3,1,0,134698,1,329,1,0,325,1,0
104-4-1,4,3,TEST,9,3,1,1,1,136238,1,568,1,9,582,1,0
104-4-1,4,3,TEST,10,3,2,0,1,138046,2,423,1,9,419,1,0
104-4-1,4,3,TEST,11,3,4,0,0,139489,2,404,1,0,400,1,0
104-4-1,4,3,TEST,12,3,3,1,0,140748,1,414,1,0,418,1,0
104-4-1,4,3,TEST,13,3,1,1,1,142465,1,798,1,9,766,1,0
104-4-1,4,3,TEST,14,3,2,0,1,144315,2,616,1,9,597,1,0
104-4-1,4,3,TEST,15,3,4,0,0,145895,2,568,1,0,572,1,0
104-4-1,4,3,TEST,16,3,3,1,0,147714,1,281,1,0,289,1,0
104-4-1,4,3,TEST,17,3,4,0,0,148970,2,509,1,0,515,1,0
104-4-1,4,3,TEST,18,3,1,1,1,150451,1,422,1,9,419,1,0
104-4-1,4,3,TEST,19,3,3,1,0,152011,1,440,1,0,436,1,0
104-4-1,4,3,TEST,20,3,2,0,1,153352,2,320,1,9,346,1,0
104-4-1,4,3,TEST,21,3,3,1,0,154833,1,480,1,0,462,1,0
104-4-1,4,3,TEST,22,3,2,0,1,156398,2,505,1,9,489,1,0
104-4-1,4,3,TEST,23,3,1,1,1,157769,1,512,1,9,528,1,0
104-4-1,4,3,TEST,24,3,4,0,0,159415,2,291,1,0,295,1,0
104-4-1,4,3,TEST,25,3,2,0,1,161032,2,472,1,9,475,1,0
