subnum,block,trial,direction,stim,offset,fixationstart,delaytime,promptstart,arrowstart,maskstart,rt,corresp,resp,corr,bivalentcorr
206-1-3,P,0,-1,R,1,8949,2250,11205,11712,11713,445,<right>,<right>,1,1
206-1-3,P,0,-1,R,2,12181,3500,15687,16193,16194,490,<right>,<right>,1,1
206-1-3,P,0,1,U,1,16708,2000,18713,19219,19220,452,<up>,<up>,1,1
206-1-3,P,0,-1,L,1,19694,2500,22200,22707,22707,456,<left>,<left>,1,1
206-1-3,P,0,-1,R,1,23186,3500,26692,27198,27199,526,<right>,<right>,1,1
206-1-3,P,0,-1,U,1,27745,3500,31250,31757,31757,465,<up>,<up>,1,1
206-1-3,P,0,1,R,1,32243,1500,33749,34256,34256,565,<right>,<right>,1,1
206-1-3,P,0,-1,L,1,34850,2500,37355,37860,37861,424,<left>,<left>,1,1
206-1-3,P,0,-1,R,2,40179,3000,43184,43389,43390,653,<right>,<right>,1,1
206-1-3,P,0,-1,R,2,44060,2250,46316,46521,46521,586,<right>,<right>,1,1
206-1-3,P,0,-1,L,1,47130,2500,49635,49842,49843,452,<left>,<right>,0,1
206-1-3,P,0,1,U,1,50307,2250,52562,52768,52768,423,<up>,<up>,1,1
206-1-3,P,0,1,L,2,53206,1500,54711,54916,54917,486,<left>,<left>,1,1
206-1-3,P,0,1,U,1,55420,2250,57675,57882,57882,469,<up>,<up>,1,1
206-1-3,P,0,1,L,1,58363,2000,60368,60573,60574,400,<left>,<left>,1,1
206-1-3,P,0,1,L,2,60997,3000,64003,64208,64208,475,<left>,<left>,1,1
206-1-3,T,1,-1,R,1,66272,2500,68777,68984,68985,545,<right>,<right>,1,1
206-1-3,T,2,1,R,2,69543,3250,72799,73006,73006,396,<right>,<left>,0,1
206-1-3,T,3,1,L,2,73416,2750,76172,76379,76379,558,<left>,<left>,1,1
206-1-3,T,4,-1,D,1,76947,3500,80451,80657,80657,567,<down>,<down>,1,1
206-1-3,T,5,1,L,2,81242,2750,83997,84204,84204,523,<left>,<left>,1,1
206-1-3,T,6,-1,U,2,84737,3000,87742,87949,87949,556,<up>,<up>,1,1
206-1-3,T,7,-1,L,1,88515,2000,90520,90726,90726,482,<left>,<left>,1,1
206-1-3,T,8,-1,L,2,91223,2250,93478,93686,93686,528,<left>,<left>,1,1
206-1-3,T,9,-1,R,2,94229,2750,96984,97190,97190,483,<right>,<right>,1,1
206-1-3,T,10,-1,U,1,97689,3250,100943,101150,101151,485,<up>,<up>,1,1
206-1-3,T,11,-1,L,1,101654,3000,104659,104866,104866,458,<left>,<left>,1,1
206-1-3,T,12,1,D,1,105341,2000,107345,107553,107553,521,<down>,<down>,1,1
206-1-3,T,13,-1,D,2,108087,2000,110092,110299,110299,598,<down>,<down>,1,1
206-1-3,T,14,-1,R,2,110907,2500,113412,113619,113619,501,<right>,<right>,1,1
206-1-3,T,15,-1,R,1,114141,3000,117146,117351,117352,529,<right>,<right>,1,1
206-1-3,T,16,-1,D,1,117893,2000,119899,120106,120107,520,<down>,<down>,1,1
206-1-3,T,17,1,D,2,120639,1750,122394,122600,122600,574,<down>,<down>,1,1
206-1-3,T,18,1,U,2,123190,3000,126194,126397,126398,597,<up>,<up>,1,1
206-1-3,T,19,1,R,2,127020,1750,128775,128981,128981,537,<right>,<right>,1,1
206-1-3,T,20,1,R,2,129529,2500,132034,132241,132241,538,<right>,<right>,1,1
206-1-3,T,21,-1,R,2,132794,2750,135550,135757,135758,562,<right>,<right>,1,1
206-1-3,T,22,-1,R,2,136337,3500,139842,140049,140049,457,<right>,<right>,1,1
206-1-3,T,23,-1,R,1,140523,2250,142778,142985,142986,458,<right>,<right>,1,1
206-1-3,T,24,-1,L,2,143468,2750,146224,146431,146432,606,<left>,<left>,1,1
206-1-3,T,25,-1,L,1,147048,2750,149804,150010,150010,437,<left>,<left>,1,1
206-1-3,T,26,-1,L,2,150470,3500,153976,154182,154183,526,<left>,<left>,1,1
206-1-3,T,27,1,U,2,154731,2500,157237,157444,157444,541,<up>,<up>,1,1
206-1-3,T,28,-1,D,1,157996,2250,160250,160457,160458,564,<down>,<down>,1,1
206-1-3,T,29,-1,L,1,161031,2750,163785,163993,163993,427,<left>,<left>,1,1
206-1-3,T,30,1,R,2,164436,2000,166441,166648,166648,603,<right>,<right>,1,1
206-1-3,T,31,1,R,2,167267,2750,170023,170230,170231,555,<right>,<right>,1,1
206-1-3,T,32,-1,R,2,170797,3250,174053,174259,174260,605,<right>,<right>,1,1
206-1-3,T,33,-1,D,1,174877,1750,176633,176838,176839,509,<down>,<down>,1,1
206-1-3,T,34,-1,D,2,177365,2250,179621,179828,179829,523,<down>,<down>,1,1
206-1-3,T,35,1,R,2,180370,2500,182877,183084,183084,522,<right>,<right>,1,1
206-1-3,T,36,-1,U,1,183623,3000,186629,186836,186836,539,<up>,<up>,1,1
206-1-3,T,37,-1,L,2,187385,2750,190139,190344,190345,665,<left>,<left>,1,1
206-1-3,T,38,-1,L,2,191024,2750,193778,193983,193984,528,<left>,<left>,1,1
206-1-3,T,39,1,U,1,194531,3000,197537,197744,197744,601,<up>,<up>,1,1
206-1-3,T,40,1,R,1,198369,3000,201374,201581,201582,488,<right>,<right>,1,1
206-1-3,T,41,1,U,2,202087,2500,204592,204799,204799,568,<up>,<up>,1,1
206-1-3,T,42,-1,R,1,205383,3250,208638,208843,208844,618,<right>,<right>,1,1
206-1-3,T,43,-1,R,1,209475,2000,211480,211685,211686,536,<right>,<right>,1,1
206-1-3,T,44,-1,R,1,212236,2750,214992,215199,215199,439,<right>,<right>,1,1
206-1-3,T,45,-1,U,1,215664,1750,217419,217626,217626,449,<up>,<up>,1,1
206-1-3,T,46,1,D,1,218091,2250,220346,220551,220552,777,<down>,<down>,1,1
206-1-3,T,47,1,R,1,221346,2750,224101,224307,224308,460,<right>,<right>,1,1
206-1-3,T,48,-1,D,1,224793,2000,226799,227006,227006,537,<down>,<down>,1,1
206-1-3,T,49,-1,R,1,227561,1750,229316,229523,229523,484,<right>,<right>,1,1
206-1-3,T,50,1,R,1,230030,1500,231535,231742,231742,538,<right>,<right>,1,1
