subnum,block,trial,direction,stim,offset,fixationstart,delaytime,promptstart,arrowstart,maskstart,rt,corresp,resp,corr,bivalentcorr
207-1-3,P,0,-1,L,1,3871,2000,5876,6383,6384,685,<left>,<left>,1,1
207-1-3,P,0,1,U,2,7082,2750,9838,10344,10345,563,<up>,<up>,1,1
207-1-3,P,0,1,D,2,10921,2750,13677,14183,14184,600,<down>,<down>,1,1
207-1-3,P,0,1,L,1,14795,3250,18050,18556,18557,573,<left>,<left>,1,1
207-1-3,P,0,1,U,1,19141,3250,22396,22901,22902,523,<up>,<up>,1,1
207-1-3,P,0,-1,L,1,23448,2250,25704,26211,26211,658,<left>,<left>,1,1
207-1-3,P,0,-1,D,2,26887,3500,30393,30899,30899,667,<down>,<down>,1,1
207-1-3,P,0,-1,L,1,31613,2750,34368,34874,34875,627,<left>,<left>,1,1
207-1-3,P,0,-1,U,1,38128,1750,39884,40091,40091,689,<up>,<up>,1,1
207-1-3,P,0,1,R,1,40791,2000,42796,43003,43003,509,<right>,<right>,1,1
207-1-3,P,0,-1,R,2,43524,2250,45779,45984,45985,954,<right>,<right>,1,1
207-1-3,P,0,1,R,2,46951,3000,49955,50162,50163,528,<right>,<right>,1,1
207-1-3,P,0,1,U,2,50702,2250,52956,53162,53163,680,<up>,<up>,1,1
207-1-3,P,0,1,R,2,53855,3500,57361,57567,57567,615,<right>,<right>,1,1
207-1-3,P,0,-1,L,2,58192,1750,59947,60154,60155,767,<left>,<right>,0,1
207-1-3,P,0,1,R,2,60933,3500,64437,64644,64645,663,<right>,<right>,1,1
207-1-3,T,1,-1,U,1,68539,2250,70794,71000,71001,580,<up>,<up>,1,1
207-1-3,T,2,1,R,2,71592,2250,73848,74054,74054,591,<right>,<right>,1,1
207-1-3,T,3,1,R,2,74655,1750,76409,76615,76616,570,<right>,<right>,1,1
207-1-3,T,4,1,R,2,77198,3000,80204,80412,80412,545,<right>,<right>,1,1
207-1-3,T,5,1,D,2,80966,3250,84222,84428,84428,616,<down>,<down>,1,1
207-1-3,T,6,1,D,2,85057,2000,87062,87268,87269,555,<down>,<down>,1,1
207-1-3,T,7,-1,R,1,87834,2000,89840,90046,90046,676,<right>,<right>,1,1
207-1-3,T,8,-1,R,1,90732,3250,93987,94192,94193,575,<right>,<right>,1,1
207-1-3,T,9,1,R,2,94779,3250,98034,98239,98240,763,<right>,<left>,0,1
207-1-3,T,10,-1,U,2,99014,2500,101519,101725,101725,640,<up>,<up>,1,1
207-1-3,T,11,-1,L,2,102376,3000,105381,105587,105588,664,<left>,<left>,1,1
207-1-3,T,12,-1,D,1,106263,1750,108018,108223,108224,698,<down>,<down>,1,1
207-1-3,T,13,1,R,2,108932,2750,111687,111893,111894,552,<right>,<right>,1,1
207-1-3,T,14,-1,R,2,112457,1750,114212,114417,114418,601,<right>,<right>,1,1
207-1-3,T,15,-1,U,1,115028,2000,117034,117241,117241,655,<up>,<up>,1,1
207-1-3,T,16,-1,L,1,117905,1750,119661,119866,119867,987,<left>,<left>,1,1
207-1-3,T,17,-1,D,1,120866,3250,124122,124328,124328,605,<down>,<down>,1,1
207-1-3,T,18,-1,R,2,124945,3250,128200,128407,128407,580,<right>,<right>,1,1
207-1-3,T,19,-1,D,1,128996,1750,130751,130958,130959,572,<down>,<down>,1,1
207-1-3,T,20,1,D,2,131542,1500,133047,133254,133254,699,<down>,<down>,1,1
207-1-3,T,21,1,D,1,133965,2750,136721,136928,136928,639,<down>,<down>,1,1
207-1-3,T,22,1,R,2,137579,2250,139834,140041,140041,613,<right>,<right>,1,1
207-1-3,T,23,-1,D,1,140663,3000,143670,143876,143876,594,<down>,<down>,1,1
207-1-3,T,24,-1,L,2,144480,1500,145986,146191,146192,745,<left>,<left>,1,1
207-1-3,T,25,-1,L,2,146949,1500,148454,148660,148660,610,<left>,<left>,1,1
207-1-3,T,26,-1,R,2,149282,2000,151287,151493,151494,687,<right>,<right>,1,1
207-1-3,T,27,-1,L,2,152192,1750,153948,154155,154155,500,<left>,<left>,1,1
207-1-3,T,28,1,L,2,154664,1500,156170,156375,156376,625,<left>,<left>,1,1
207-1-3,T,29,1,L,1,157012,1500,158517,158725,158725,665,<left>,<left>,1,1
207-1-3,T,30,-1,D,1,159401,1750,161157,161364,161364,625,<down>,<down>,1,1
207-1-3,T,31,-1,U,1,162000,3500,165505,165710,165711,647,<up>,<up>,1,1
207-1-3,T,32,-1,L,1,166367,1500,167873,168079,168079,536,<left>,<left>,1,1
207-1-3,T,33,1,L,2,168626,3500,172132,172339,172339,626,<left>,<left>,1,1
207-1-3,T,34,-1,L,2,172975,3000,175980,176186,176186,686,<left>,<left>,1,1
207-1-3,T,35,-1,R,1,176884,1750,178640,178846,178846,713,<right>,<right>,1,1
207-1-3,T,36,1,U,1,179569,1500,181075,181280,181281,527,<up>,<up>,1,1
207-1-3,T,37,-1,L,1,181820,1750,183575,183780,183781,574,<left>,<left>,1,1
207-1-3,T,38,1,U,1,184364,3000,187368,187573,187574,700,<up>,<up>,1,1
207-1-3,T,39,1,L,2,188286,3250,191543,191750,191750,586,<left>,<left>,1,1
207-1-3,T,40,1,U,2,192349,3250,195604,195810,195811,515,<up>,<up>,1,1
207-1-3,T,41,-1,D,2,196342,2750,199096,199304,199304,682,<down>,<down>,1,1
207-1-3,T,42,1,L,2,199995,3000,202999,203205,203205,560,<left>,<left>,1,1
207-1-3,T,43,1,R,1,203777,2250,206032,206239,206239,673,<right>,<right>,1,1
207-1-3,T,44,1,U,2,206921,2000,208925,209131,209132,611,<up>,<up>,1,1
207-1-3,T,45,-1,L,2,209753,3250,213009,213215,213215,632,<left>,<left>,1,1
207-1-3,T,46,-1,R,1,213858,1500,215364,215569,215570,623,<right>,<right>,1,1
207-1-3,T,47,-1,U,1,216204,2750,218959,219166,219166,614,<up>,<up>,1,1
207-1-3,T,48,-1,D,1,219789,2500,222296,222502,222503,583,<down>,<down>,1,1
207-1-3,T,49,1,U,1,223097,2250,225352,225558,225558,524,<up>,<up>,1,1
207-1-3,T,50,1,L,1,226093,2250,228347,228552,228552,797,<left>,<left>,1,1
