subnum,block,trial,direction,stim,offset,fixationstart,delaytime,promptstart,arrowstart,maskstart,rt,corresp,resp,corr,bivalentcorr
201-4-2,P,0,-1,U,2,6701,1750,8457,8963,8963,465,<up>,<up>,1,1
201-4-2,P,0,-1,L,1,9456,3000,12461,12966,12966,482,<left>,<left>,1,1
201-4-2,P,0,1,R,2,13470,2750,16226,16732,16733,343,<right>,<right>,1,1
201-4-2,P,0,-1,L,2,17098,1500,18604,19109,19110,414,<left>,<left>,1,1
201-4-2,P,0,-1,D,1,19544,1500,21049,21554,21555,484,<down>,<down>,1,1
201-4-2,P,0,1,L,1,22061,3000,25066,25571,25571,427,<left>,<left>,1,1
201-4-2,P,0,-1,D,1,26020,2250,28276,28782,28783,558,<down>,<down>,1,1
201-4-2,P,0,1,U,1,29363,3000,32367,32874,32874,452,<up>,<up>,1,1
201-4-2,P,0,-1,D,2,37314,2250,39569,39774,39775,658,<down>,<down>,1,1
201-4-2,P,0,1,R,2,40444,1500,41949,42157,42157,502,<right>,<left>,0,1
201-4-2,P,0,-1,L,1,42684,3500,46190,46395,46396,414,<left>,<left>,1,1
201-4-2,P,0,-1,R,1,46831,1750,48586,48791,48792,541,<right>,<right>,1,1
201-4-2,P,0,-1,U,2,49350,2000,51354,51559,51560,534,<up>,<up>,1,1
201-4-2,P,0,-1,U,1,52112,2750,54867,55074,55074,477,<up>,<up>,1,1
201-4-2,P,0,1,D,1,55569,1500,57075,57282,57282,574,<down>,<down>,1,1
201-4-2,P,0,-1,U,1,57883,2000,59888,60095,60095,592,<up>,<up>,1,1
201-4-2,T,1,-1,U,2,63255,2500,65759,65965,65966,448,<up>,<up>,1,1
201-4-2,T,2,1,L,1,66431,3250,69686,69891,69891,525,<left>,<left>,1,1
201-4-2,T,3,1,R,2,70425,3000,73430,73638,73638,599,<right>,<right>,1,1
201-4-2,T,4,1,R,1,74249,3250,77504,77710,77711,472,<right>,<left>,0,1
201-4-2,T,5,-1,L,2,78195,2750,80949,81155,81155,699,<left>,<left>,1,1
201-4-2,T,6,1,D,2,81872,3000,84877,85085,85085,556,<down>,<down>,1,1
201-4-2,T,7,-1,R,2,85655,3500,89160,89366,89366,528,<right>,<right>,1,1
201-4-2,T,8,-1,U,2,89911,3500,93416,93623,93624,582,<up>,<up>,1,1
201-4-2,T,9,-1,D,1,94224,3250,97480,97687,97687,525,<down>,<down>,1,1
201-4-2,T,10,-1,R,2,98230,2250,100486,100693,100693,528,<right>,<right>,1,1
201-4-2,T,11,1,L,2,101234,3250,104488,104695,104696,615,<left>,<left>,1,1
201-4-2,T,12,-1,R,2,105325,1500,106830,107037,107037,486,<right>,<right>,1,1
201-4-2,T,13,1,L,2,107539,3000,110545,110752,110752,610,<left>,<left>,1,1
201-4-2,T,14,1,L,2,111375,1750,113129,113334,113335,539,<left>,<left>,1,1
201-4-2,T,15,-1,U,2,113892,2250,116147,116354,116354,579,<up>,<up>,1,1
201-4-2,T,16,-1,R,2,116948,1500,118454,118661,118661,598,<right>,<right>,1,1
201-4-2,T,17,1,U,2,119268,3250,122523,122730,122730,505,<up>,<up>,1,1
201-4-2,T,18,-1,R,2,123258,1750,125012,125219,125220,655,<right>,<right>,1,1
201-4-2,T,19,-1,U,1,125891,2250,128146,128353,128353,476,<up>,<up>,1,1
201-4-2,T,20,1,U,2,128852,2750,131606,131813,131814,537,<up>,<up>,1,1
201-4-2,T,21,1,U,2,132363,2250,134619,134826,134826,523,<up>,<up>,1,1
201-4-2,T,22,-1,U,1,135360,3500,138866,139073,139073,488,<up>,<up>,1,1
201-4-2,T,23,1,U,2,139574,3250,142829,143036,143036,512,<up>,<up>,1,1
201-4-2,T,24,-1,U,2,143566,2500,146071,146278,146278,549,<up>,<up>,1,1
201-4-2,T,25,1,R,1,146838,2250,149094,149301,149301,486,<right>,<right>,1,1
201-4-2,T,26,-1,R,2,149803,1750,151558,151765,151765,599,<right>,<right>,1,1
201-4-2,T,27,1,D,2,152382,2750,155137,155344,155344,670,<down>,<down>,1,1
201-4-2,T,28,1,R,1,156038,3250,159293,159499,159499,408,<right>,<right>,1,1
201-4-2,T,29,1,D,1,159924,3000,162929,163134,163135,504,<down>,<down>,1,1
201-4-2,T,30,-1,R,1,163649,2750,166405,166611,166612,477,<right>,<right>,1,1
201-4-2,T,31,1,R,2,167107,3500,170613,170820,170820,597,<right>,<right>,1,1
201-4-2,T,32,-1,D,1,171433,3000,174439,174645,174645,524,<down>,<down>,1,1
201-4-2,T,33,-1,U,2,175182,1750,176938,177145,177145,564,<up>,<up>,1,1
201-4-2,T,34,1,L,1,177724,2000,179731,179937,179937,425,<left>,<right>,0,1
201-4-2,T,35,1,D,2,180374,1750,182128,182335,182336,579,<down>,<down>,1,1
201-4-2,T,36,1,R,1,182927,1750,184683,184890,184890,462,<right>,<right>,1,1
201-4-2,T,37,1,U,1,185366,2250,187622,187829,187829,452,<up>,<up>,1,1
201-4-2,T,38,1,R,1,188300,3500,191804,192011,192012,488,<right>,<right>,1,1
201-4-2,T,39,-1,R,1,192511,3000,195516,195722,195722,460,<right>,<right>,1,1
201-4-2,T,40,-1,L,1,196197,2250,198454,198661,198661,565,<left>,<left>,1,1
201-4-2,T,41,1,U,1,199252,1500,200757,200962,200963,529,<up>,<up>,1,1
201-4-2,T,42,-1,U,1,201509,1750,203264,203471,203471,516,<up>,<up>,1,1
201-4-2,T,43,-1,L,1,204014,1500,205520,205725,205726,451,<left>,<left>,1,1
201-4-2,T,44,1,D,1,206195,3000,209200,209406,209407,550,<down>,<down>,1,1
201-4-2,T,45,1,L,1,209974,3250,213229,213435,213436,557,<left>,<left>,1,1
201-4-2,T,46,-1,D,1,214004,3500,217508,217714,217714,496,<down>,<down>,1,1
201-4-2,T,47,-1,D,1,218223,2750,220978,221183,221184,441,<down>,<down>,1,1
201-4-2,T,48,1,L,1,221641,2750,224396,224602,224602,459,<left>,<left>,1,1
201-4-2,T,49,1,R,2,225087,2250,227343,227550,227550,650,<right>,<right>,1,1
201-4-2,T,50,-1,R,1,228222,2250,230478,230683,230684,504,<right>,<right>,1,1
