subnum,block,trial,direction,stim,offset,fixationstart,delaytime,promptstart,arrowstart,maskstart,rt,corresp,resp,corr,bivalentcorr
207-4-2,P,0,1,L,1,3791,2000,5797,6303,6304,805,<left>,<left>,1,1
207-4-2,P,0,1,R,1,7126,1750,8881,9386,9387,489,<right>,<right>,1,1
207-4-2,P,0,1,U,2,9901,2500,12407,12913,12914,596,<up>,<up>,1,1
207-4-2,P,0,1,L,2,13537,1750,15291,15800,15801,594,<left>,<left>,1,1
207-4-2,P,0,1,L,2,16413,1750,18169,18676,18676,551,<left>,<left>,1,1
207-4-2,P,0,-1,R,2,19252,2500,21758,22265,22265,726,<right>,<right>,1,1
207-4-2,P,0,-1,D,1,23010,1750,24766,25272,25272,691,<down>,<down>,1,1
207-4-2,P,0,-1,L,2,25981,2750,28736,29242,29242,623,<left>,<left>,1,1
207-4-2,P,0,-1,U,2,31815,2250,34070,34277,34277,737,<up>,<up>,1,1
207-4-2,P,0,-1,R,1,35028,2000,37034,37240,37241,600,<right>,<right>,1,1
207-4-2,P,0,1,U,2,37855,3000,40861,41067,41068,661,<up>,<up>,1,1
207-4-2,P,0,1,L,1,41746,2750,44502,44709,44709,620,<left>,<left>,1,1
207-4-2,P,0,1,U,1,45351,1750,47106,47312,47313,549,<up>,<up>,1,1
207-4-2,P,0,-1,R,2,47881,1750,49637,49843,49844,630,<right>,<right>,1,1
207-4-2,P,0,-1,R,2,50485,2250,52740,52947,52947,515,<right>,<right>,1,1
207-4-2,P,0,-1,D,1,53473,2000,55480,55686,55687,576,<down>,<down>,1,1
207-4-2,T,1,1,U,2,57899,3250,61155,61363,61363,593,<up>,<up>,1,1
207-4-2,T,2,-1,U,2,61979,2250,64236,64444,64445,583,<up>,<up>,1,1
207-4-2,T,3,1,D,1,65042,3250,68299,68506,68506,707,<down>,<down>,1,1
207-4-2,T,4,-1,L,2,69231,1500,70736,70943,70944,697,<left>,<left>,1,1
207-4-2,T,5,1,L,2,71654,3000,74659,74866,74866,542,<left>,<left>,1,1
207-4-2,T,6,-1,R,2,75419,2500,77925,78132,78132,630,<right>,<right>,1,1
207-4-2,T,7,-1,U,2,78778,1750,80533,80740,80740,584,<up>,<up>,1,1
207-4-2,T,8,-1,R,1,81338,2500,83844,84050,84051,651,<right>,<right>,1,1
207-4-2,T,9,-1,L,1,84713,2500,87218,87424,87425,564,<left>,<left>,1,1
207-4-2,T,10,-1,R,1,88004,2500,90510,90716,90717,597,<right>,<right>,1,1
207-4-2,T,11,1,D,1,91328,1750,93084,93292,93292,611,<down>,<down>,1,1
207-4-2,T,12,1,R,2,93920,3500,97426,97632,97633,639,<right>,<right>,1,1
207-4-2,T,13,-1,U,2,98290,1500,99795,100003,100003,607,<up>,<up>,1,1
207-4-2,T,14,1,U,1,100624,3250,103880,104086,104087,591,<up>,<up>,1,1
207-4-2,T,15,1,U,2,104689,3500,108194,108402,108402,596,<up>,<up>,1,1
207-4-2,T,16,1,D,2,109014,1750,110770,110979,110980,881,<down>,<down>,1,1
207-4-2,T,17,1,U,1,111875,1500,113379,113586,113587,608,<up>,<up>,1,1
207-4-2,T,18,-1,D,2,114213,2500,116718,116925,116926,706,<down>,<down>,1,1
207-4-2,T,19,1,R,1,117644,2250,119900,120107,120108,583,<right>,<right>,1,1
207-4-2,T,20,-1,U,1,120701,2000,122706,122913,122913,532,<up>,<up>,1,1
207-4-2,T,21,-1,L,1,123458,1750,125213,125421,125421,628,<left>,<left>,1,1
207-4-2,T,22,1,U,2,126070,1500,127575,127783,127783,608,<up>,<up>,1,1
207-4-2,T,23,-1,L,2,128405,1500,129911,130119,130119,622,<left>,<left>,1,1
207-4-2,T,24,-1,R,1,130754,1500,132260,132467,132467,587,<right>,<right>,1,1
207-4-2,T,25,-1,D,1,133068,3000,136074,136281,136281,622,<down>,<down>,1,1
207-4-2,T,26,1,R,1,136924,2250,139179,139385,139386,567,<right>,<right>,1,1
207-4-2,T,27,-1,U,1,139975,2750,142730,142937,142937,533,<up>,<up>,1,1
207-4-2,T,28,-1,R,1,143488,1500,144994,145201,145202,654,<right>,<right>,1,1
207-4-2,T,29,-1,L,1,145868,3000,148874,149080,149081,715,<left>,<left>,1,1
207-4-2,T,30,1,U,2,149811,2250,152067,152274,152274,960,<up>,<up>,1,1
207-4-2,T,31,1,L,2,153246,2750,156001,156207,156208,617,<left>,<left>,1,1
207-4-2,T,32,1,U,2,156837,1750,158592,158801,158801,625,<up>,<up>,1,1
207-4-2,T,33,1,U,1,159441,3500,162947,163153,163154,579,<up>,<up>,1,1
207-4-2,T,34,1,U,1,163747,2500,166253,166459,166460,630,<up>,<up>,1,1
207-4-2,T,35,1,D,2,167101,1750,168857,169063,169063,668,<down>,<down>,1,1
207-4-2,T,36,1,R,1,169744,1750,171500,171707,171707,653,<right>,<right>,1,1
207-4-2,T,37,-1,D,1,172380,3500,175887,176093,176093,1078,<down>,<down>,1,1
207-4-2,T,38,-1,L,2,177181,2750,179936,180142,180143,575,<left>,<left>,1,1
207-4-2,T,39,-1,L,2,180732,1500,182238,182446,182446,542,<left>,<left>,1,1
207-4-2,T,40,-1,D,2,182999,3000,186005,186211,186212,695,<down>,<down>,1,1
207-4-2,T,41,-1,U,2,186922,1750,188678,188885,188885,656,<up>,<up>,1,1
207-4-2,T,42,1,R,2,189559,3250,192814,193021,193021,686,<right>,<right>,1,1
207-4-2,T,43,1,R,2,193719,2000,195724,195931,195931,620,<right>,<right>,1,1
207-4-2,T,44,1,U,1,196563,3000,199569,199775,199776,562,<up>,<up>,1,1
207-4-2,T,45,1,R,1,200367,2250,202623,202829,202830,532,<right>,<right>,1,1
207-4-2,T,46,1,R,1,203377,3000,206382,206588,206589,484,<right>,<right>,1,1
207-4-2,T,47,-1,D,1,207086,2250,209340,209548,209548,592,<down>,<down>,1,1
207-4-2,T,48,-1,L,1,210150,2750,212906,213113,213113,542,<left>,<left>,1,1
207-4-2,T,49,-1,U,1,213672,2250,215928,216134,216134,570,<up>,<up>,1,1
207-4-2,T,50,1,D,2,216722,3000,219727,219934,219934,926,<down>,<down>,1,1
