subnum,stimtype,block,trialtype,trial,condition,stim,dim1,dim2,time0,resp1,rt1,corr1,resp2,rt2,corr2,tooslow
207-1-3,4,1,PRACTICE,-25,1,1,1,1,9588,1,492,1,NA,0,0,0
207-1-3,4,1,PRACTICE,-24,1,3,1,0,11165,1,392,1,NA,0,0,0
207-1-3,4,1,PRACTICE,-23,1,4,0,0,12405,2,395,1,NA,0,0,0
207-1-3,4,1,PRACTICE,-22,1,2,0,1,13714,2,456,1,NA,0,0,0
207-1-3,4,1,PRACTICE,-21,1,4,0,0,15092,2,400,1,NA,0,0,0
207-1-3,4,1,PRACTICE,-20,1,2,0,1,16690,2,518,1,NA,0,0,0
207-1-3,4,1,PRACTICE,-19,1,3,1,0,18086,1,382,1,NA,0,0,0
207-1-3,4,1,PRACTICE,-18,1,1,1,1,19336,1,367,1,NA,0,0,0
207-1-3,4,1,TEST,1,1,1,1,1,20661,1,414,1,NA,0,0,0
207-1-3,4,1,TEST,2,1,3,1,0,22388,1,390,1,NA,0,0,0
207-1-3,4,1,TEST,3,1,4,0,0,24051,2,378,1,NA,0,0,0
207-1-3,4,1,TEST,4,1,2,0,1,25360,2,802,1,NA,0,0,0
207-1-3,4,1,TEST,5,1,4,0,0,27435,2,410,1,NA,0,0,0
207-1-3,4,1,TEST,6,1,3,1,0,28975,2,387,0,NA,0,0,0
207-1-3,4,1,TEST,7,1,1,1,1,31078,1,502,1,NA,0,0,0
207-1-3,4,1,TEST,8,1,2,0,1,32889,2,368,1,NA,0,0,0
207-1-3,4,1,TEST,9,1,4,0,0,34484,2,360,1,NA,0,0,0
207-1-3,4,1,TEST,10,1,1,1,1,35774,1,438,1,NA,0,0,0
207-1-3,4,1,TEST,11,1,3,1,0,37303,1,586,1,NA,0,0,0
207-1-3,4,1,TEST,12,1,2,0,1,38960,2,365,1,NA,0,0,0
207-1-3,4,1,TEST,13,1,4,0,0,40531,2,407,1,NA,0,0,0
207-1-3,4,1,TEST,14,1,2,0,1,41978,2,336,1,NA,0,0,0
207-1-3,4,1,TEST,15,1,1,1,1,43545,1,590,1,NA,0,0,0
207-1-3,4,1,TEST,16,1,3,1,0,45075,1,336,1,NA,0,0,0
207-1-3,4,1,TEST,17,1,2,0,1,46449,2,386,1,NA,0,0,0
207-1-3,4,1,TEST,18,1,3,1,0,47939,1,490,1,NA,0,0,0
207-1-3,4,1,TEST,19,1,4,0,0,49455,2,525,1,NA,0,0,0
207-1-3,4,1,TEST,20,1,1,1,1,51078,1,346,1,NA,0,0,0
207-1-3,4,1,TEST,21,1,2,0,1,52453,2,440,1,NA,0,0,0
207-1-3,4,1,TEST,22,1,4,0,0,53996,2,502,1,NA,0,0,0
207-1-3,4,1,TEST,23,1,3,1,0,55609,1,412,1,NA,0,0,0
207-1-3,4,1,TEST,24,1,1,1,1,57092,1,404,1,NA,0,0,0
207-1-3,4,1,TEST,25,1,4,0,0,58404,2,739,1,NA,0,0,0
207-1-3,4,2,PRACTICE,-25,2,4,0,0,68095,NA,0,0,0,526,1,0
207-1-3,4,2,PRACTICE,-24,2,1,1,1,69731,NA,0,0,9,456,1,0
207-1-3,4,2,PRACTICE,-23,2,3,1,0,71459,NA,0,0,0,374,1,0
207-1-3,4,2,PRACTICE,-22,2,2,0,1,72988,NA,0,0,9,431,1,0
207-1-3,4,2,PRACTICE,-21,2,1,1,1,74542,NA,0,0,9,430,1,0
207-1-3,4,2,PRACTICE,-20,2,3,1,0,75928,NA,0,0,0,384,1,0
207-1-3,4,2,PRACTICE,-19,2,2,0,1,77592,NA,0,0,9,394,1,0
207-1-3,4,2,PRACTICE,-18,2,4,0,0,78976,NA,0,0,0,404,1,0
207-1-3,4,2,TEST,1,2,3,1,0,80436,NA,0,0,0,414,1,0
207-1-3,4,2,TEST,2,2,4,0,0,82108,NA,0,0,0,386,1,0
207-1-3,4,2,TEST,3,2,1,1,1,83719,NA,0,0,9,324,1,0
207-1-3,4,2,TEST,4,2,2,0,1,85097,NA,0,0,9,371,1,0
207-1-3,4,2,TEST,5,2,3,1,0,86320,NA,0,0,0,382,1,0
207-1-3,4,2,TEST,6,2,1,1,1,87677,NA,0,0,9,332,1,0
207-1-3,4,2,TEST,7,2,4,0,0,89285,NA,0,0,0,360,1,0
207-1-3,4,2,TEST,8,2,2,0,1,90649,NA,0,0,9,359,1,0
207-1-3,4,2,TEST,9,2,1,1,1,92304,NA,0,0,9,334,1,0
207-1-3,4,2,TEST,10,2,2,0,1,93738,NA,0,0,9,363,1,0
207-1-3,4,2,TEST,11,2,3,1,0,95061,NA,0,0,0,381,1,0
207-1-3,4,2,TEST,12,2,4,0,0,96754,NA,0,0,0,347,1,0
207-1-3,4,2,TEST,13,2,1,1,1,98044,NA,0,0,9,424,1,0
207-1-3,4,2,TEST,14,2,3,1,0,99339,NA,0,0,0,379,1,0
207-1-3,4,2,TEST,15,2,2,0,1,100964,NA,0,0,9,538,1,0
207-1-3,4,2,TEST,16,2,4,0,0,102470,NA,0,0,0,383,1,0
207-1-3,4,2,TEST,17,2,3,1,0,103869,NA,0,0,0,364,1,0
207-1-3,4,2,TEST,18,2,4,0,0,105503,NA,0,0,0,377,1,0
207-1-3,4,2,TEST,19,2,1,1,1,106836,NA,0,0,9,582,1,0
207-1-3,4,2,TEST,20,2,2,0,1,108322,NA,0,0,9,654,1,0
207-1-3,4,2,TEST,21,2,1,1,1,110195,NA,0,0,9,510,1,0
207-1-3,4,2,TEST,22,2,4,0,0,111639,NA,0,0,0,454,1,0
207-1-3,4,2,TEST,23,2,3,1,0,113234,NA,0,0,0,345,1,0
207-1-3,4,2,TEST,24,2,2,0,1,114849,NA,0,0,9,382,1,0
207-1-3,4,2,TEST,25,2,4,0,0,116226,NA,0,0,0,411,1,0
207-1-3,4,3,PRACTICE,-25,3,1,1,1,124724,1,707,1,9,696,1,0
207-1-3,4,3,PRACTICE,-24,3,4,0,0,126404,2,430,1,0,424,1,0
207-1-3,4,3,PRACTICE,-23,3,3,1,0,127922,1,515,1,0,494,1,0
207-1-3,4,3,PRACTICE,-22,3,2,0,1,129296,2,470,1,9,458,1,0
207-1-3,4,3,PRACTICE,-21,3,3,1,0,130629,1,597,1,0,574,1,0
207-1-3,4,3,PRACTICE,-20,3,2,0,1,132340,2,681,1,9,685,1,0
207-1-3,4,3,PRACTICE,-19,3,1,1,1,134214,1,608,1,9,612,1,0
207-1-3,4,3,PRACTICE,-18,3,4,0,0,135742,2,481,1,0,462,1,0
207-1-3,4,3,TEST,1,3,3,1,0,137129,1,747,1,0,751,1,0
207-1-3,4,3,TEST,2,3,2,0,1,138923,2,520,1,9,514,1,0
207-1-3,4,3,TEST,3,3,4,0,0,140574,1,469,0,0,448,1,0
207-1-3,4,3,TEST,4,3,1,1,1,142740,1,474,1,9,478,1,0
207-1-3,4,3,TEST,5,3,2,0,1,144549,2,752,1,9,738,1,0
207-1-3,4,3,TEST,6,3,4,0,0,146490,2,530,1,0,508,1,0
207-1-3,4,3,TEST,7,3,3,1,0,148310,1,836,1,0,828,1,0
207-1-3,4,3,TEST,8,3,1,1,1,150007,1,638,1,9,622,1,0
207-1-3,4,3,TEST,9,3,2,0,1,151739,2,567,1,9,563,1,0
207-1-3,4,3,TEST,10,3,1,1,1,153433,1,544,1,9,540,1,0
207-1-3,4,3,TEST,11,3,3,1,0,154838,1,551,1,0,523,1,0
207-1-3,4,3,TEST,12,3,4,0,0,156716,2,521,1,0,483,1,0
207-1-3,4,3,TEST,13,3,2,0,1,158395,2,711,1,9,708,1,0
207-1-3,4,3,TEST,14,3,1,1,1,160154,1,653,1,9,695,1,0
207-1-3,4,3,TEST,15,3,4,0,0,162093,2,481,1,0,465,1,0
207-1-3,4,3,TEST,16,3,3,1,0,163786,1,608,1,0,612,1,0
207-1-3,4,3,TEST,17,3,2,0,1,165381,2,553,1,9,549,1,0
207-1-3,4,3,TEST,18,3,4,0,0,166820,2,707,1,0,671,1,0
207-1-3,4,3,TEST,19,3,3,1,0,168528,1,1062,1,9,620,0,0
207-1-3,4,3,TEST,20,3,1,1,1,171080,2,456,0,9,452,1,0
207-1-3,4,3,TEST,21,3,3,1,0,172925,1,488,1,0,478,1,0
207-1-3,4,3,TEST,22,3,2,0,1,174668,2,464,1,9,470,1,0
207-1-3,4,3,TEST,23,3,4,0,0,175979,2,633,1,0,623,1,0
207-1-3,4,3,TEST,24,3,1,1,1,177768,1,614,1,9,598,1,0
207-1-3,4,3,TEST,25,3,3,1,0,179698,1,712,1,0,502,1,0
