subnum,stimtype,block,trialtype,trial,condition,stim,dim1,dim2,time0,resp1,rt1,corr1,resp2,rt2,corr2,tooslow
205-1-3,4,1,PRACTICE,-25,1,3,1,0,8762,1,580,1,NA,0,0,0
205-1-3,4,1,PRACTICE,-24,1,4,0,0,10334,2,458,1,NA,0,0,0
205-1-3,4,1,PRACTICE,-23,1,1,1,1,11999,1,290,1,NA,0,0,0
205-1-3,4,1,PRACTICE,-22,1,2,0,1,13306,2,464,1,NA,0,0,0
205-1-3,4,1,PRACTICE,-21,1,1,1,1,14779,1,312,1,NA,0,0,0
205-1-3,4,1,PRACTICE,-20,1,4,0,0,16293,2,366,1,NA,0,0,0
205-1-3,4,1,PRACTICE,-19,1,3,1,0,17800,1,363,1,NA,0,0,0
205-1-3,4,1,PRACTICE,-18,1,2,0,1,19084,2,357,1,NA,0,0,0
205-1-3,4,1,TEST,1,1,2,0,1,20575,2,444,1,NA,0,0,0
205-1-3,4,1,TEST,2,1,1,1,1,22044,1,322,1,NA,0,0,0
205-1-3,4,1,TEST,3,1,4,0,0,23251,2,359,1,NA,0,0,0
205-1-3,4,1,TEST,4,1,3,1,0,24931,1,282,1,NA,0,0,0
205-1-3,4,1,TEST,5,1,4,0,0,26165,2,340,1,NA,0,0,0
205-1-3,4,1,TEST,6,1,1,1,1,27744,1,304,1,NA,0,0,0
205-1-3,4,1,TEST,7,1,2,0,1,29173,2,412,1,NA,0,0,0
205-1-3,4,1,TEST,8,1,3,1,0,30708,1,309,1,NA,0,0,0
205-1-3,4,1,TEST,9,1,1,1,1,32205,1,352,1,NA,0,0,0
205-1-3,4,1,TEST,10,1,4,0,0,33562,2,428,1,NA,0,0,0
205-1-3,4,1,TEST,11,1,3,1,0,35185,1,587,1,NA,0,0,0
205-1-3,4,1,TEST,12,1,2,0,1,36668,2,377,1,NA,0,0,0
205-1-3,4,1,TEST,13,1,3,1,0,38172,1,313,1,NA,0,0,0
205-1-3,4,1,TEST,14,1,4,0,0,39744,2,362,1,NA,0,0,0
205-1-3,4,1,TEST,15,1,2,0,1,41260,2,534,1,NA,0,0,0
205-1-3,4,1,TEST,16,1,1,1,1,42826,1,510,1,NA,0,0,0
205-1-3,4,1,TEST,17,1,4,0,0,44507,2,378,1,NA,0,0,0
205-1-3,4,1,TEST,18,1,1,1,1,45725,1,372,1,NA,0,0,0
205-1-3,4,1,TEST,19,1,2,0,1,47219,2,406,1,NA,0,0,0
205-1-3,4,1,TEST,20,1,3,1,0,48632,1,377,1,NA,0,0,0
205-1-3,4,1,TEST,21,1,4,0,0,50109,2,361,1,NA,0,0,0
205-1-3,4,1,TEST,22,1,3,1,0,51471,1,324,1,NA,0,0,0
205-1-3,4,1,TEST,23,1,1,1,1,53060,1,434,1,NA,0,0,0
205-1-3,4,1,TEST,24,1,2,0,1,54767,2,341,1,NA,0,0,0
205-1-3,4,1,TEST,25,1,4,0,0,56082,2,405,1,NA,0,0,0
205-1-3,4,2,PRACTICE,-25,2,1,1,1,63037,NA,0,0,9,1418,1,0
205-1-3,4,2,PRACTICE,-24,2,3,1,0,65352,NA,0,0,0,504,1,0
205-1-3,4,2,PRACTICE,-23,2,4,0,0,66698,NA,0,0,0,406,1,0
205-1-3,4,2,PRACTICE,-22,2,2,0,1,68140,NA,0,0,9,506,1,0
205-1-3,4,2,PRACTICE,-21,2,3,1,0,69927,NA,0,0,0,438,1,0
205-1-3,4,2,PRACTICE,-20,2,4,0,0,71414,NA,0,0,0,398,1,0
205-1-3,4,2,PRACTICE,-19,2,2,0,1,72788,NA,0,0,9,430,1,0
205-1-3,4,2,PRACTICE,-18,2,1,1,1,74258,NA,0,0,9,403,1,0
205-1-3,4,2,TEST,1,2,4,0,0,75663,NA,0,0,0,395,1,0
205-1-3,4,2,TEST,2,2,2,0,1,76931,NA,0,0,9,430,1,0
205-1-3,4,2,TEST,3,2,3,1,0,78451,NA,0,0,0,407,1,0
205-1-3,4,2,TEST,4,2,1,1,1,79752,NA,0,0,9,409,1,0
205-1-3,4,2,TEST,5,2,4,0,0,81167,NA,0,0,0,312,1,0
205-1-3,4,2,TEST,6,2,3,1,0,82715,NA,0,0,0,338,1,0
205-1-3,4,2,TEST,7,2,1,1,1,84297,NA,0,0,9,367,1,0
205-1-3,4,2,TEST,8,2,2,0,1,85908,NA,0,0,9,446,1,0
205-1-3,4,2,TEST,9,2,3,1,0,87547,NA,0,0,0,401,1,0
205-1-3,4,2,TEST,10,2,2,0,1,89107,NA,0,0,9,364,1,0
205-1-3,4,2,TEST,11,2,4,0,0,90428,NA,0,0,0,332,1,0
205-1-3,4,2,TEST,12,2,1,1,1,91611,NA,0,0,9,379,1,0
205-1-3,4,2,TEST,13,2,2,0,1,92887,NA,0,0,9,382,1,0
205-1-3,4,2,TEST,14,2,1,1,1,94339,NA,0,0,9,386,1,0
205-1-3,4,2,TEST,15,2,3,1,0,95608,NA,0,0,0,622,1,0
205-1-3,4,2,TEST,16,2,4,0,0,97066,NA,0,0,0,358,1,0
205-1-3,4,2,TEST,17,2,2,0,1,98319,NA,0,0,9,423,1,0
205-1-3,4,2,TEST,18,2,3,1,0,99652,NA,0,0,0,400,1,0
205-1-3,4,2,TEST,19,2,1,1,1,101252,NA,0,0,9,332,1,0
205-1-3,4,2,TEST,20,2,4,0,0,102468,NA,0,0,0,312,1,0
205-1-3,4,2,TEST,21,2,3,1,0,103992,NA,0,0,0,367,1,0
205-1-3,4,2,TEST,22,2,4,0,0,105559,NA,0,0,0,334,1,0
205-1-3,4,2,TEST,23,2,1,1,1,107155,NA,0,0,9,396,1,0
205-1-3,4,2,TEST,24,2,2,0,1,108501,NA,0,0,9,439,1,0
205-1-3,4,2,TEST,25,2,4,0,0,110153,NA,0,0,0,390,1,0
205-1-3,4,3,PRACTICE,-25,3,4,0,0,118484,2,538,1,0,572,1,0
205-1-3,4,3,PRACTICE,-24,3,2,0,1,120054,2,742,1,9,756,1,0
205-1-3,4,3,PRACTICE,-23,3,1,1,1,122007,1,497,1,9,501,1,0
205-1-3,4,3,PRACTICE,-22,3,3,1,0,123786,1,536,1,0,528,1,0
205-1-3,4,3,PRACTICE,-21,3,3,1,0,125471,1,603,1,0,599,1,0
205-1-3,4,3,PRACTICE,-20,3,4,0,0,127051,2,597,1,0,582,1,0
205-1-3,4,3,PRACTICE,-19,3,2,0,1,128722,2,846,1,9,842,1,0
205-1-3,4,3,PRACTICE,-18,3,1,1,1,130670,1,467,1,9,479,1,0
205-1-3,4,3,TEST,1,3,2,0,1,132262,2,516,1,9,534,1,0
205-1-3,4,3,TEST,2,3,1,1,1,133658,1,517,1,9,521,1,0
205-1-3,4,3,TEST,3,3,4,0,0,135474,2,527,1,0,519,1,0
205-1-3,4,3,TEST,4,3,3,1,0,137163,1,562,1,0,556,1,0
205-1-3,4,3,TEST,5,3,1,1,1,138971,1,908,1,9,473,1,0
205-1-3,4,3,TEST,6,3,2,0,1,141124,2,517,1,9,561,1,0
205-1-3,4,3,TEST,7,3,4,0,0,142979,2,487,1,0,472,1,0
205-1-3,4,3,TEST,8,3,3,1,0,144769,1,594,1,0,590,1,0
205-1-3,4,3,TEST,9,3,4,0,0,146595,2,484,1,0,472,1,0
205-1-3,4,3,TEST,10,3,1,1,1,148123,1,428,1,9,474,1,0
205-1-3,4,3,TEST,11,3,2,0,1,149728,2,458,1,9,468,1,0
205-1-3,4,3,TEST,12,3,3,1,0,151277,1,560,1,0,528,1,0
205-1-3,4,3,TEST,13,3,1,1,1,152821,1,526,1,9,562,1,0
205-1-3,4,3,TEST,14,3,3,1,0,154461,1,594,1,0,584,1,0
205-1-3,4,3,TEST,15,3,4,0,0,155973,2,568,1,0,554,1,0
205-1-3,4,3,TEST,16,3,2,0,1,157814,2,643,1,9,679,1,0
205-1-3,4,3,TEST,17,3,3,1,0,159619,1,490,1,0,508,1,0
205-1-3,4,3,TEST,18,3,4,0,0,161099,2,408,1,0,414,1,0
205-1-3,4,3,TEST,19,3,1,1,1,162606,1,420,1,9,452,1,0
205-1-3,4,3,TEST,20,3,2,0,1,163937,2,590,1,9,598,1,0
205-1-3,4,3,TEST,21,3,1,1,1,165487,1,480,1,9,528,1,0
205-1-3,4,3,TEST,22,3,3,1,0,167026,1,483,1,0,511,1,0
205-1-3,4,3,TEST,23,3,2,0,1,168475,2,524,1,9,504,1,0
205-1-3,4,3,TEST,24,3,4,0,0,170321,2,587,1,0,591,1,0
205-1-3,4,3,TEST,25,3,1,1,1,171986,1,423,1,9,719,1,0
