subnum,block,trial,direction,stim,offset,fixationstart,delaytime,promptstart,arrowstart,maskstart,rt,corresp,resp,corr,bivalentcorr
109-4-3,P,0,-1,R,2,5791,2750,8546,9051,9052,608,<right>,<right>,1,1
109-4-3,P,0,1,D,1,9684,2250,11939,12445,12445,521,<down>,<down>,1,1
109-4-3,P,0,-1,L,1,12989,3000,15995,16501,16501,405,<left>,<left>,1,1
109-4-3,P,0,-1,R,1,16929,2750,19685,20189,20189,489,<right>,<right>,1,1
109-4-3,P,0,-1,U,2,20700,3250,23957,24462,24463,792,<up>,<up>,1,1
109-4-3,P,0,-1,D,1,25272,2750,28028,28534,28535,521,<down>,<down>,1,1
109-4-3,P,0,1,R,1,29083,2250,31338,31844,31844,543,<right>,<right>,1,1
109-4-3,P,0,-1,D,1,32433,3000,35438,35945,35945,539,<down>,<down>,1,1
109-4-3,P,0,-1,R,2,38680,2500,41184,41390,41390,560,<right>,<right>,1,1
109-4-3,P,0,-1,R,1,41974,2250,44228,44434,44434,444,<right>,<right>,1,1
109-4-3,P,0,1,L,2,44896,2750,47652,47859,47859,674,<left>,<left>,1,1
109-4-3,P,0,-1,L,1,48544,3000,51548,51753,51754,482,<left>,<left>,1,1
109-4-3,P,0,1,D,1,52257,3500,55762,55969,55969,585,<down>,<down>,1,1
109-4-3,P,0,1,D,1,56568,2750,59323,59530,59531,503,<down>,<down>,1,1
109-4-3,P,0,1,U,1,60052,2250,62307,62512,62512,604,<up>,<up>,1,1
109-4-3,P,0,1,R,2,63130,2000,65134,65340,65341,502,<right>,<right>,1,1
109-4-3,T,1,1,U,2,67402,2250,69656,69861,69862,514,<up>,<up>,1,1
109-4-3,T,2,-1,U,2,70392,2500,72896,73103,73103,602,<up>,<up>,1,1
109-4-3,T,3,-1,L,1,73723,2250,75979,76186,76186,478,<left>,<left>,1,1
109-4-3,T,4,1,L,1,76679,1750,78433,78639,78639,471,<left>,<left>,1,1
109-4-3,T,5,1,L,1,79126,3500,82631,82838,82838,587,<left>,<left>,1,1
109-4-3,T,6,-1,L,1,83440,3000,86445,86652,86652,462,<left>,<left>,1,1
109-4-3,T,7,1,L,1,87137,2000,89144,89350,89350,497,<left>,<left>,1,1
109-4-3,T,8,-1,R,2,89862,2000,91868,92075,92075,613,<right>,<right>,1,1
109-4-3,T,9,-1,R,1,92705,3000,95710,95916,95917,546,<right>,<right>,1,1
109-4-3,T,10,-1,R,2,96478,2000,98484,98690,98690,642,<right>,<right>,1,1
109-4-3,T,11,1,L,1,99349,3250,102603,102808,102809,477,<left>,<left>,1,1
109-4-3,T,12,-1,U,1,103303,2250,105557,105762,105762,471,<up>,<up>,1,1
109-4-3,T,13,-1,L,2,106248,2500,108754,108961,108961,585,<left>,<left>,1,1
109-4-3,T,14,1,L,2,109558,3250,112813,113019,113020,622,<left>,<left>,1,1
109-4-3,T,15,-1,L,1,113654,2750,116409,116614,116615,446,<left>,<left>,1,1
109-4-3,T,16,-1,D,2,117082,2750,119836,120041,120042,664,<down>,<down>,1,1
109-4-3,T,17,1,U,2,120722,3000,123726,123931,123932,704,<up>,<up>,1,1
109-4-3,T,18,-1,L,2,124648,2000,126654,126861,126861,514,<left>,<left>,1,1
109-4-3,T,19,-1,L,1,127392,2000,129397,129602,129603,519,<left>,<left>,1,1
109-4-3,T,20,-1,R,2,130136,2500,132641,132848,132848,643,<right>,<right>,1,1
109-4-3,T,21,-1,L,1,133510,1750,135265,135470,135470,559,<left>,<left>,1,1
109-4-3,T,22,-1,R,2,136055,2500,138560,138765,138765,680,<right>,<right>,1,1
109-4-3,T,23,-1,D,1,139463,3250,142717,142924,142925,670,<down>,<down>,1,1
109-4-3,T,24,-1,D,1,143623,2250,145879,146086,146086,447,<down>,<down>,1,1
109-4-3,T,25,1,D,2,146547,1750,148302,148507,148508,746,<down>,<down>,1,1
109-4-3,T,26,-1,R,1,149274,3000,152278,152485,152486,510,<right>,<right>,1,1
109-4-3,T,27,-1,R,1,153013,1500,154520,154727,154728,486,<right>,<right>,1,1
109-4-3,T,28,1,R,2,155230,2250,157484,157692,157692,630,<right>,<right>,1,1
109-4-3,T,29,-1,R,2,158333,1500,159837,160042,160043,528,<right>,<right>,1,1
109-4-3,T,30,-1,D,1,160591,3000,163596,163803,163803,508,<down>,<down>,1,1
109-4-3,T,31,-1,R,1,164327,3250,167581,167787,167787,503,<right>,<right>,1,1
109-4-3,T,32,1,L,1,168305,2750,171061,171268,171268,572,<left>,<left>,1,1
109-4-3,T,33,1,L,2,171853,2500,174359,174565,174566,571,<left>,<left>,1,1
109-4-3,T,34,1,D,1,175153,2000,177158,177363,177364,527,<down>,<down>,1,1
109-4-3,T,35,1,U,2,177908,3000,180914,181120,181121,705,<up>,<up>,1,1
109-4-3,T,36,-1,D,2,181838,2250,184092,184297,184298,608,<down>,<down>,1,1
109-4-3,T,37,1,L,2,184922,1500,186427,186634,186635,585,<left>,<left>,1,1
109-4-3,T,38,1,D,1,187246,3000,190251,190456,190457,561,<down>,<down>,1,1
109-4-3,T,39,1,L,2,191031,2000,193036,193242,193243,530,<left>,<left>,1,1
109-4-3,T,40,1,U,2,193791,2500,196295,196500,196501,636,<up>,<up>,1,1
109-4-3,T,41,-1,D,1,197151,3500,200657,200864,200864,592,<down>,<down>,1,1
109-4-3,T,42,1,U,1,201474,2000,203479,203685,203686,498,<up>,<up>,1,1
109-4-3,T,43,-1,U,2,204210,3250,207465,207670,207671,679,<up>,<up>,1,1
109-4-3,T,44,1,D,2,208367,3000,211373,211580,211580,631,<down>,<down>,1,1
109-4-3,T,45,1,R,2,212238,2750,214993,215200,215200,656,<right>,<right>,1,1
109-4-3,T,46,1,R,1,215870,3000,218876,219083,219083,511,<right>,<right>,1,1
109-4-3,T,47,-1,R,1,219612,1750,221366,221571,221572,562,<right>,<right>,1,1
109-4-3,T,48,-1,R,2,222160,2250,224416,224623,224623,794,<right>,<right>,1,1
109-4-3,T,49,1,U,1,225429,2250,227683,227888,227889,570,<up>,<up>,1,1
109-4-3,T,50,-1,L,1,228472,1750,230226,230433,230434,661,<left>,<left>,1,1
