subnum,block,trial,direction,stim,offset,fixationstart,delaytime,promptstart,arrowstart,maskstart,rt,corresp,resp,corr,bivalentcorr
207-3-3,P,0,1,R,2,2926,2500,5432,5937,5938,5325,<right>,<right>,1,1
207-3-3,P,0,1,L,2,11274,1750,13029,13535,13535,952,<left>,<left>,1,1
207-3-3,P,0,-1,D,2,14501,2000,16507,17013,17013,666,<down>,<down>,1,1
207-3-3,P,0,-1,R,1,17692,2250,19948,20455,20456,822,<right>,<right>,1,1
207-3-3,P,0,-1,U,1,21291,3250,24547,25052,25053,630,<up>,<up>,1,1
207-3-3,P,0,1,R,1,25696,2750,28451,28958,28958,530,<right>,<right>,1,1
207-3-3,P,0,1,L,2,29508,1500,31012,31519,31520,621,<left>,<left>,1,1
207-3-3,P,0,1,R,2,32159,2000,34163,34670,34671,693,<right>,<right>,1,1
207-3-3,P,0,-1,D,2,36922,1750,38676,38881,38882,722,<down>,<down>,1,1
207-3-3,P,0,1,L,2,39617,3250,42872,43078,43079,622,<left>,<left>,1,1
207-3-3,P,0,1,U,2,43713,3250,46968,47175,47176,622,<up>,<up>,1,1
207-3-3,P,0,-1,R,1,47810,2000,49816,50022,50022,705,<right>,<right>,1,1
207-3-3,P,0,-1,R,2,50738,3000,53744,53951,53952,644,<right>,<right>,1,1
207-3-3,P,0,-1,D,1,54605,2750,57360,57566,57567,544,<down>,<down>,1,1
207-3-3,P,0,-1,R,2,58125,1500,59630,59836,59837,633,<right>,<right>,1,1
207-3-3,P,0,-1,D,2,60482,2750,63238,63444,63444,668,<down>,<down>,1,1
207-3-3,T,1,1,R,2,65969,1500,67475,67681,67681,658,<right>,<right>,1,1
207-3-3,T,2,-1,D,1,68352,2000,70357,70563,70564,551,<down>,<down>,1,1
207-3-3,T,3,1,U,2,71129,1500,72635,72840,72841,598,<up>,<up>,1,1
207-3-3,T,4,1,U,2,73453,3250,76708,76914,76915,630,<up>,<up>,1,1
207-3-3,T,5,1,L,2,77556,3500,81061,81266,81267,656,<left>,<left>,1,1
207-3-3,T,6,-1,R,1,81936,2750,84691,84897,84897,614,<right>,<right>,1,1
207-3-3,T,7,-1,R,1,85522,2000,87529,87735,87735,612,<right>,<right>,1,1
207-3-3,T,8,1,R,1,88359,2250,90614,90820,90820,590,<right>,<right>,1,1
207-3-3,T,9,-1,R,2,91421,2750,94176,94382,94383,673,<right>,<right>,1,1
207-3-3,T,10,1,R,1,95067,2500,97571,97777,97778,743,<right>,<right>,1,1
207-3-3,T,11,1,D,1,98533,3000,101538,101743,101744,657,<down>,<down>,1,1
207-3-3,T,12,-1,U,2,102416,3500,105920,106126,106127,657,<up>,<up>,1,1
207-3-3,T,13,1,U,2,106795,1500,108300,108507,108507,691,<up>,<up>,1,1
207-3-3,T,14,1,U,1,109209,3500,112715,112921,112922,653,<up>,<up>,1,1
207-3-3,T,15,-1,L,2,113585,3500,117091,117297,117297,721,<left>,<left>,1,1
207-3-3,T,16,-1,R,1,118030,2500,120536,120741,120742,669,<right>,<right>,1,1
207-3-3,T,17,-1,R,2,121425,1500,122930,123136,123137,709,<right>,<right>,1,1
207-3-3,T,18,-1,R,2,123856,2500,126363,126570,126570,850,<right>,<right>,1,1
207-3-3,T,19,1,D,1,127432,1500,128937,129142,129143,643,<down>,<down>,1,1
207-3-3,T,20,-1,L,1,129797,2750,132552,132758,132759,637,<left>,<left>,1,1
207-3-3,T,21,1,U,1,133409,3250,136664,136870,136871,591,<up>,<up>,1,1
207-3-3,T,22,1,L,1,137474,3250,140729,140935,140936,887,<left>,<left>,1,1
207-3-3,T,23,-1,U,1,141834,2500,144339,144545,144545,589,<up>,<up>,1,1
207-3-3,T,24,-1,D,2,145147,2500,147653,147858,147859,630,<down>,<down>,1,1
207-3-3,T,25,-1,U,1,148505,2750,151261,151467,151468,534,<up>,<up>,1,1
207-3-3,T,26,1,R,2,152011,1750,153766,153973,153973,649,<right>,<right>,1,1
207-3-3,T,27,-1,R,2,154633,2750,157387,157593,157594,680,<right>,<right>,1,1
207-3-3,T,28,1,R,2,158284,2500,160790,160996,160996,720,<right>,<right>,1,1
207-3-3,T,29,-1,U,2,161729,3000,164735,164941,164942,701,<up>,<up>,1,1
207-3-3,T,30,-1,D,1,165656,2250,167912,168118,168118,619,<down>,<down>,1,1
207-3-3,T,31,1,L,2,168749,1750,170504,170709,170710,772,<left>,<left>,1,1
207-3-3,T,32,1,D,1,171494,3500,174999,175206,175206,593,<down>,<down>,1,1
207-3-3,T,33,1,D,2,175810,2250,178065,178271,178271,665,<down>,<down>,1,1
207-3-3,T,34,-1,L,2,178947,1750,180703,180908,180909,686,<left>,<left>,1,1
207-3-3,T,35,1,D,2,181607,3500,185113,185319,185319,694,<down>,<down>,1,1
207-3-3,T,36,1,L,1,186026,3000,189031,189237,189238,660,<left>,<left>,1,1
207-3-3,T,37,1,L,1,189909,2750,192665,192871,192872,673,<left>,<left>,1,1
207-3-3,T,38,1,U,2,193557,2250,195812,196018,196019,1061,<up>,<left>,0,0
207-3-3,T,39,1,L,1,197089,3500,200595,200801,200801,635,<left>,<left>,1,1
207-3-3,T,40,-1,D,1,201448,2000,203454,203660,203660,663,<down>,<down>,1,1
207-3-3,T,41,-1,D,2,204334,2000,206340,206546,206546,1195,<down>,<down>,1,1
207-3-3,T,42,-1,L,1,207755,1750,209511,209717,209717,654,<left>,<left>,1,1
207-3-3,T,43,1,U,1,210383,3250,213639,213844,213845,709,<up>,<up>,1,1
207-3-3,T,44,-1,D,1,214567,2750,217323,217529,217529,666,<down>,<down>,1,1
207-3-3,T,45,1,U,1,218207,2500,220712,220917,220918,546,<up>,<up>,1,1
207-3-3,T,46,-1,L,2,221476,3500,224981,225189,225190,675,<left>,<left>,1,1
207-3-3,T,47,1,U,1,225875,2000,227880,228086,228087,562,<up>,<up>,1,1
207-3-3,T,48,1,L,1,228661,3500,232166,232372,232373,691,<left>,<left>,1,1
207-3-3,T,49,1,U,2,233076,1750,234831,235037,235038,632,<up>,<up>,1,1
207-3-3,T,50,-1,U,2,235681,1500,237187,237393,237393,723,<up>,<up>,1,1
