subnum,block,trial,direction,stim,offset,fixationstart,delaytime,promptstart,arrowstart,maskstart,rt,corresp,resp,corr,bivalentcorr
204-4-3,P,0,1,L,1,4751,2250,7006,7514,7514,502,<left>,<left>,1,1
204-4-3,P,0,-1,R,2,8040,3000,11046,11552,11553,515,<right>,<right>,1,1
204-4-3,P,0,-1,U,2,12090,3500,15596,16102,16102,544,<up>,<up>,1,1
204-4-3,P,0,-1,U,2,16670,1500,18174,18682,18682,543,<up>,<up>,1,1
204-4-3,P,0,1,L,1,19250,2500,21755,22260,22261,523,<left>,<left>,1,1
204-4-3,P,0,1,R,1,22812,2250,25068,25575,25575,550,<right>,<right>,1,1
204-4-3,P,0,-1,D,2,26147,1750,27903,28409,28410,724,<down>,<down>,1,1
204-4-3,P,0,-1,U,2,29178,3250,32434,32941,32942,605,<up>,<up>,1,1
204-4-3,P,0,1,L,2,35136,3250,38392,38598,38598,785,<left>,<right>,0,1
204-4-3,P,0,1,U,1,39396,2250,41651,41858,41859,477,<up>,<up>,1,1
204-4-3,P,0,1,L,1,42351,2750,45106,45311,45312,449,<left>,<left>,1,1
204-4-3,P,0,1,L,1,45775,3250,49029,49234,49235,469,<left>,<left>,1,1
204-4-3,P,0,1,L,1,49720,1750,51475,51682,51682,427,<left>,<left>,1,1
204-4-3,P,0,1,L,2,52130,1500,53634,53839,53840,684,<left>,<left>,1,1
204-4-3,P,0,-1,D,1,54533,3250,57787,57994,57994,595,<down>,<down>,1,1
204-4-3,P,0,-1,U,1,58604,3000,61610,61817,61818,457,<up>,<up>,1,1
204-4-3,T,1,-1,D,1,64449,2000,66455,66660,66661,501,<down>,<down>,1,1
204-4-3,T,2,1,L,1,67173,2000,69178,69384,69385,479,<left>,<left>,1,1
204-4-3,T,3,-1,U,2,69880,2750,72634,72840,72841,541,<up>,<up>,1,1
204-4-3,T,4,1,R,2,73399,1500,74903,75108,75109,607,<right>,<right>,1,1
204-4-3,T,5,1,U,2,75732,2000,77737,77944,77944,541,<up>,<up>,1,1
204-4-3,T,6,1,U,2,78503,3000,81507,81714,81715,525,<up>,<down>,0,1
204-4-3,T,7,1,D,2,82258,1750,84014,84221,84221,568,<down>,<down>,1,1
204-4-3,T,8,-1,U,1,84807,1750,86563,86768,86769,591,<up>,<up>,1,1
204-4-3,T,9,-1,D,1,87387,1750,89143,89348,89349,597,<down>,<down>,1,1
204-4-3,T,10,1,U,2,89961,1750,91715,91921,91921,552,<up>,<up>,1,1
204-4-3,T,11,-1,L,2,92494,3250,95750,95957,95957,593,<left>,<left>,1,1
204-4-3,T,12,-1,R,2,96566,1500,98071,98278,98278,624,<right>,<right>,1,1
204-4-3,T,13,1,U,2,98918,2500,101423,101628,101629,624,<up>,<up>,1,1
204-4-3,T,14,-1,L,1,102271,1500,103775,103983,103983,474,<left>,<left>,1,1
204-4-3,T,15,1,U,2,104474,2250,106730,106937,106938,533,<up>,<up>,1,1
204-4-3,T,16,-1,D,1,107483,3250,110739,110944,110945,687,<down>,<down>,1,1
204-4-3,T,17,1,L,2,111647,3500,115151,115359,115359,567,<left>,<left>,1,1
204-4-3,T,18,-1,U,2,115940,2250,118194,118400,118400,672,<up>,<up>,1,1
204-4-3,T,19,1,U,1,119085,2000,121091,121298,121298,613,<up>,<up>,1,1
204-4-3,T,20,1,L,2,121930,2500,124434,124639,124640,551,<left>,<left>,1,1
204-4-3,T,21,1,U,2,125209,1750,126964,127169,127170,652,<up>,<up>,1,1
204-4-3,T,22,1,U,1,127840,1750,129594,129800,129800,484,<up>,<up>,1,1
204-4-3,T,23,1,U,2,130309,2000,132313,132518,132519,535,<up>,<up>,1,1
204-4-3,T,24,-1,D,1,133070,3250,136326,136533,136533,585,<down>,<down>,1,1
204-4-3,T,25,1,R,2,137130,2000,139135,139342,139342,721,<right>,<right>,1,1
204-4-3,T,26,-1,U,1,140074,2000,142079,142286,142286,560,<up>,<up>,1,1
204-4-3,T,27,1,R,2,142859,2250,145115,145321,145321,546,<right>,<right>,1,1
204-4-3,T,28,-1,U,2,145886,1750,147641,147846,147847,525,<up>,<up>,1,1
204-4-3,T,29,1,L,2,148384,1750,150139,150346,150346,592,<left>,<left>,1,1
204-4-3,T,30,-1,R,1,150953,1500,152459,152666,152666,503,<right>,<right>,1,1
204-4-3,T,31,-1,R,2,153188,2750,155943,156148,156149,549,<right>,<right>,1,1
204-4-3,T,32,-1,L,2,156713,2000,158718,158923,158923,624,<left>,<left>,1,1
204-4-3,T,33,1,R,1,159567,2500,162073,162280,162280,457,<right>,<left>,0,1
204-4-3,T,34,1,L,1,162760,2000,164766,164973,164973,524,<left>,<left>,1,1
204-4-3,T,35,-1,U,1,165514,2250,167769,167974,167974,490,<up>,<up>,1,1
204-4-3,T,36,1,R,1,168479,2000,170485,170691,170692,461,<right>,<left>,0,1
204-4-3,T,37,1,U,1,171163,3250,174419,174626,174626,585,<up>,<up>,1,1
204-4-3,T,38,-1,R,1,175224,2500,177729,177936,177936,575,<right>,<right>,1,1
204-4-3,T,39,1,U,1,178531,2500,181037,181244,181245,528,<up>,<up>,1,1
204-4-3,T,40,-1,L,2,181789,3000,184795,185002,185003,544,<left>,<left>,1,1
204-4-3,T,41,-1,L,1,185564,1500,187069,187274,187275,595,<left>,<left>,1,1
204-4-3,T,42,1,U,2,187885,3500,191391,191597,191598,557,<up>,<up>,1,1
204-4-3,T,43,1,U,1,192168,3500,195673,195880,195880,470,<up>,<up>,1,1
204-4-3,T,44,-1,D,2,196369,3250,199625,199831,199831,700,<down>,<down>,1,1
204-4-3,T,45,-1,R,1,200543,3250,203798,204004,204004,518,<right>,<right>,1,1
204-4-3,T,46,1,D,2,204544,2000,206550,206757,206757,810,<down>,<down>,1,1
204-4-3,T,47,1,L,1,207582,1500,209088,209295,209295,579,<left>,<left>,1,1
204-4-3,T,48,1,U,1,209887,2000,211891,212096,212097,488,<up>,<up>,1,1
204-4-3,T,49,-1,L,2,212606,2750,215362,215569,215570,596,<left>,<left>,1,1
204-4-3,T,50,-1,L,2,216181,1750,217936,218141,218142,542,<left>,<left>,1,1
