subnum,block,trial,direction,stim,offset,fixationstart,delaytime,promptstart,arrowstart,maskstart,rt,corresp,resp,corr,bivalentcorr
114-2-1,P,0,-1,D,1,3046,2500,5550,6055,6056,535,<down>,<down>,1,1
114-2-1,P,0,-1,D,1,6613,1750,8369,8875,8875,520,<down>,<down>,1,1
114-2-1,P,0,-1,D,2,9415,1500,10918,11424,11425,515,<down>,<down>,1,1
114-2-1,P,0,-1,U,2,11952,2500,14457,14962,14963,527,<up>,<up>,1,1
114-2-1,P,0,-1,D,2,15501,2750,18255,18758,18758,563,<down>,<down>,1,1
114-2-1,P,0,1,L,2,19337,2000,21343,21846,21847,1121,<left>,<down>,0,0
114-2-1,P,0,1,R,1,22982,1500,24485,24988,24988,559,<right>,<right>,1,1
114-2-1,P,0,-1,L,1,25560,3250,28814,29321,29321,1993,<left>,<left>,1,1
114-2-1,P,0,1,U,2,36773,2250,39027,39230,39230,1016,<up>,<left>,0,0
114-2-1,P,0,-1,R,1,40257,2000,42260,42463,42464,512,<right>,<right>,1,1
114-2-1,P,0,1,U,1,42991,2250,45247,45449,45450,495,<up>,<up>,1,1
114-2-1,P,0,1,U,2,45956,3250,49211,49415,49415,525,<up>,<up>,1,1
114-2-1,P,0,1,U,1,49949,1500,51453,51660,51661,481,<up>,<up>,1,1
114-2-1,P,0,1,L,1,52155,2500,54660,54865,54866,896,<left>,<left>,1,1
114-2-1,P,0,-1,D,1,55776,1500,57280,57486,57486,613,<down>,<down>,1,1
114-2-1,P,0,1,U,2,58110,2250,60365,60569,60569,589,<up>,<up>,1,1
114-2-1,T,1,-1,L,1,62602,3250,65857,66062,66062,961,<left>,<left>,1,1
114-2-1,T,2,-1,D,1,67033,2500,69539,69744,69745,508,<down>,<down>,1,1
114-2-1,T,3,-1,R,1,70267,3500,73772,73976,73977,486,<right>,<right>,1,1
114-2-1,T,4,1,U,1,74473,3000,77479,77684,77685,448,<up>,<up>,1,1
114-2-1,T,5,-1,L,1,78147,2500,80651,80855,80855,994,<left>,<left>,1,1
114-2-1,T,6,-1,R,2,81864,1500,83370,83574,83575,605,<right>,<right>,1,1
114-2-1,T,7,1,R,1,84195,2250,86450,86655,86655,586,<right>,<right>,1,1
114-2-1,T,8,1,U,2,87257,1500,88761,88966,88967,587,<up>,<up>,1,1
114-2-1,T,9,-1,D,1,89566,2000,91570,91775,91775,525,<down>,<down>,1,1
114-2-1,T,10,1,D,2,92312,2250,94567,94774,94774,622,<down>,<down>,1,1
114-2-1,T,11,-1,R,2,95409,2500,97914,98118,98118,533,<right>,<right>,1,1
114-2-1,T,12,-1,U,2,98669,3250,101924,102127,102127,552,<up>,<up>,1,1
114-2-1,T,13,-1,L,2,102690,3500,106195,106401,106402,983,<left>,<left>,1,1
114-2-1,T,14,1,U,2,107398,2750,110152,110356,110357,539,<up>,<up>,1,1
114-2-1,T,15,-1,R,1,110909,2250,113162,113365,113365,497,<right>,<right>,1,1
114-2-1,T,16,-1,R,2,113879,3000,116882,117085,117086,526,<right>,<right>,1,1
114-2-1,T,17,-1,L,1,117631,3000,120636,120842,120843,1006,<left>,<left>,1,1
114-2-1,T,18,1,L,1,121861,2750,124616,124822,124823,563,<left>,<left>,1,1
114-2-1,T,19,1,D,2,125397,3000,128403,128608,128609,623,<down>,<down>,1,1
114-2-1,T,20,1,D,2,129241,1500,130747,130954,130955,686,<down>,<down>,1,1
114-2-1,T,21,-1,L,2,131653,2500,134159,134366,134366,603,<left>,<left>,1,1
114-2-1,T,22,1,D,2,134982,2750,137736,137943,137944,605,<down>,<down>,1,1
114-2-1,T,23,-1,L,1,138564,3500,142070,142275,142276,667,<left>,<left>,1,1
114-2-1,T,24,-1,U,1,142956,2500,145462,145669,145670,541,<up>,<up>,1,1
114-2-1,T,25,-1,U,1,146222,3000,149227,149433,149433,527,<up>,<up>,1,1
114-2-1,T,26,-1,D,2,149970,3000,152975,153181,153181,665,<down>,<down>,1,1
114-2-1,T,27,-1,U,1,153857,3250,157110,157316,157316,477,<up>,<up>,1,1
114-2-1,T,28,1,R,2,157807,2500,160312,160519,160519,589,<right>,<right>,1,1
114-2-1,T,29,1,D,2,161120,2000,163124,163332,163332,561,<down>,<down>,1,1
114-2-1,T,30,-1,D,2,163902,3500,167407,167615,167616,648,<down>,<down>,1,1
114-2-1,T,31,1,U,2,168276,2000,170281,170487,170488,619,<up>,<up>,1,1
114-2-1,T,32,1,D,1,171120,2250,173376,173583,173584,589,<down>,<down>,1,1
114-2-1,T,33,1,U,2,174184,2500,176689,176896,176896,537,<up>,<up>,1,1
114-2-1,T,34,1,L,2,177445,2000,179450,179656,179656,906,<left>,<left>,1,1
114-2-1,T,35,-1,U,2,180575,1500,182081,182285,182285,712,<up>,<up>,1,1
114-2-1,T,36,1,R,2,183010,1750,184764,184969,184970,654,<right>,<right>,1,1
114-2-1,T,37,1,U,1,185637,2500,188143,188350,188350,598,<up>,<up>,1,1
114-2-1,T,38,1,R,2,188957,3500,192463,192669,192669,593,<right>,<right>,1,1
114-2-1,T,39,1,R,1,193272,2250,195527,195732,195733,630,<right>,<right>,1,1
114-2-1,T,40,-1,U,1,196374,2250,198631,198837,198838,538,<up>,<up>,1,1
114-2-1,T,41,-1,D,2,199389,2750,202145,202351,202352,669,<down>,<down>,1,1
114-2-1,T,42,1,L,2,203032,1500,204537,204743,204743,752,<left>,<left>,1,1
114-2-1,T,43,1,L,2,205506,3250,208760,208966,208967,1034,<left>,<left>,1,1
114-2-1,T,44,-1,D,2,210013,1500,211519,211726,211727,608,<down>,<down>,1,1
114-2-1,T,45,-1,U,2,212346,1750,214101,214309,214309,616,<up>,<up>,1,1
114-2-1,T,46,1,L,2,214935,3000,217942,218148,218148,724,<left>,<left>,1,1
114-2-1,T,47,-1,D,1,218883,3000,221887,222093,222094,631,<down>,<down>,1,1
114-2-1,T,48,-1,R,2,222734,2750,225490,225696,225697,583,<right>,<right>,1,1
114-2-1,T,49,1,L,2,226290,1750,228047,228251,228251,1028,<left>,<right>,0,1
114-2-1,T,50,1,R,1,229291,3000,232295,232501,232501,618,<right>,<right>,1,1
