subnum,stimtype,block,trialtype,trial,condition,stim,dim1,dim2,time0,resp1,rt1,corr1,resp2,rt2,corr2,tooslow
106-2-1,4,1,PRACTICE,-25,1,1,1,1,15331,1,652,1,NA,0,0,0
106-2-1,4,1,PRACTICE,-24,1,4,0,0,17099,2,547,1,NA,0,0,0
106-2-1,4,1,PRACTICE,-23,1,2,0,1,18565,2,534,1,NA,0,0,0
106-2-1,4,1,PRACTICE,-22,1,3,1,0,20232,1,511,1,NA,0,0,0
106-2-1,4,1,PRACTICE,-21,1,1,1,1,21897,1,314,1,NA,0,0,0
106-2-1,4,1,PRACTICE,-20,1,2,0,1,23438,2,333,1,NA,0,0,0
106-2-1,4,1,PRACTICE,-19,1,3,1,0,24769,1,486,1,NA,0,0,0
106-2-1,4,1,PRACTICE,-18,1,4,0,0,26515,2,410,1,NA,0,0,0
106-2-1,4,1,TEST,1,1,4,0,0,28218,2,419,1,NA,0,0,0
106-2-1,4,1,TEST,2,1,3,1,0,29521,1,388,1,NA,0,0,0
106-2-1,4,1,TEST,3,1,2,0,1,30841,2,420,1,NA,0,0,0
106-2-1,4,1,TEST,4,1,1,1,1,32288,1,342,1,NA,0,0,0
106-2-1,4,1,TEST,5,1,3,1,0,33844,1,558,1,NA,0,0,0
106-2-1,4,1,TEST,6,1,2,0,1,35712,2,438,1,NA,0,0,0
106-2-1,4,1,TEST,7,1,4,0,0,37210,2,495,1,NA,0,0,0
106-2-1,4,1,TEST,8,1,1,1,1,38601,1,400,1,NA,0,0,0
106-2-1,4,1,TEST,9,1,3,1,0,40237,1,353,1,NA,0,0,0
106-2-1,4,1,TEST,10,1,2,0,1,41709,2,389,1,NA,0,0,0
106-2-1,4,1,TEST,11,1,4,0,0,43205,2,369,1,NA,0,0,0
106-2-1,4,1,TEST,12,1,1,1,1,44518,1,418,1,NA,0,0,0
106-2-1,4,1,TEST,13,1,4,0,0,46141,2,407,1,NA,0,0,0
106-2-1,4,1,TEST,14,1,2,0,1,47433,2,806,1,NA,0,0,0
106-2-1,4,1,TEST,15,1,1,1,1,49575,1,501,1,NA,0,0,0
106-2-1,4,1,TEST,16,1,3,1,0,51214,1,447,1,NA,0,0,0
106-2-1,4,1,TEST,17,1,4,0,0,52799,2,418,1,NA,0,0,0
106-2-1,4,1,TEST,18,1,1,1,1,54155,1,458,1,NA,0,0,0
106-2-1,4,1,TEST,19,1,3,1,0,55903,1,386,1,NA,0,0,0
106-2-1,4,1,TEST,20,1,2,0,1,57267,2,481,1,NA,0,0,0
106-2-1,4,1,TEST,21,1,4,0,0,58746,2,421,1,NA,0,0,0
106-2-1,4,1,TEST,22,1,3,1,0,60092,1,431,1,NA,0,0,0
106-2-1,4,1,TEST,23,1,2,0,1,61692,2,449,1,NA,0,0,0
106-2-1,4,1,TEST,24,1,1,1,1,63254,1,362,1,NA,0,0,0
106-2-1,4,1,TEST,25,1,2,0,1,64818,2,460,1,NA,0,0,0
106-2-1,4,2,PRACTICE,-25,2,4,0,0,71215,NA,0,0,0,574,1,0
106-2-1,4,2,PRACTICE,-24,2,2,0,1,72991,NA,0,0,9,541,1,0
106-2-1,4,2,PRACTICE,-23,2,3,1,0,74692,NA,0,0,0,298,1,0
106-2-1,4,2,PRACTICE,-22,2,1,1,1,76072,NA,0,0,9,414,1,0
106-2-1,4,2,PRACTICE,-21,2,4,0,0,77726,NA,0,0,0,346,1,0
106-2-1,4,2,PRACTICE,-20,2,2,0,1,79383,NA,0,0,9,394,1,0
106-2-1,4,2,PRACTICE,-19,2,3,1,0,81090,NA,0,0,0,328,1,0
106-2-1,4,2,PRACTICE,-18,2,1,1,1,82733,NA,0,0,9,397,1,0
106-2-1,4,2,TEST,1,2,4,0,0,84168,NA,0,0,0,425,1,0
106-2-1,4,2,TEST,2,2,1,1,1,85730,NA,0,0,9,428,1,0
106-2-1,4,2,TEST,3,2,3,1,0,87099,NA,0,0,0,419,1,0
106-2-1,4,2,TEST,4,2,2,0,1,88789,NA,0,0,9,369,1,0
106-2-1,4,2,TEST,5,2,3,1,0,90360,NA,0,0,0,363,1,0
106-2-1,4,2,TEST,6,2,2,0,1,91654,NA,0,0,9,452,1,0
106-2-1,4,2,TEST,7,2,4,0,0,93204,NA,0,0,0,347,1,0
106-2-1,4,2,TEST,8,2,1,1,1,94720,NA,0,0,9,268,1,0
106-2-1,4,2,TEST,9,2,3,1,0,96212,NA,0,0,0,238,1,0
106-2-1,4,2,TEST,10,2,2,0,1,97450,NA,0,0,9,359,1,0
106-2-1,4,2,TEST,11,2,4,0,0,98962,NA,0,0,0,288,1,0
106-2-1,4,2,TEST,12,2,1,1,1,100343,NA,0,0,9,300,1,0
106-2-1,4,2,TEST,13,2,3,1,0,101953,NA,0,0,0,268,1,0
106-2-1,4,2,TEST,14,2,1,1,1,103321,NA,0,0,9,317,1,0
106-2-1,4,2,TEST,15,2,4,0,0,104683,NA,0,0,0,336,1,0
106-2-1,4,2,TEST,16,2,2,0,1,106033,NA,0,0,9,336,1,0
106-2-1,4,2,TEST,17,2,4,0,0,107495,NA,0,0,0,264,1,0
106-2-1,4,2,TEST,18,2,2,0,1,108956,NA,0,0,9,299,1,0
106-2-1,4,2,TEST,19,2,3,1,0,110472,NA,0,0,0,253,1,0
106-2-1,4,2,TEST,20,2,1,1,1,111562,NA,0,0,9,445,1,0
106-2-1,4,2,TEST,21,2,2,0,1,113008,NA,0,0,9,326,1,0
106-2-1,4,2,TEST,22,2,4,0,0,114287,NA,0,0,0,419,1,0
106-2-1,4,2,TEST,23,2,1,1,1,115693,NA,0,0,9,418,1,0
106-2-1,4,2,TEST,24,2,3,1,0,117034,NA,0,0,0,394,1,0
106-2-1,4,2,TEST,25,2,4,0,0,118610,NA,0,0,0,410,1,0
106-2-1,4,3,PRACTICE,-25,3,1,1,1,123545,1,589,1,9,597,1,0
106-2-1,4,3,PRACTICE,-24,3,3,1,0,125258,1,601,1,0,595,1,0
106-2-1,4,3,PRACTICE,-23,3,2,0,1,126720,2,560,1,9,556,1,0
106-2-1,4,3,PRACTICE,-22,3,4,0,0,128496,2,532,1,0,537,1,0
106-2-1,4,3,PRACTICE,-21,3,3,1,0,130289,1,574,1,0,588,1,0
106-2-1,4,3,PRACTICE,-20,3,1,1,1,131802,1,601,1,9,605,1,0
106-2-1,4,3,PRACTICE,-19,3,4,0,0,133440,2,541,1,0,528,1,0
106-2-1,4,3,PRACTICE,-18,3,2,0,1,135183,2,614,1,9,626,1,0
106-2-1,4,3,TEST,1,3,1,1,1,136763,1,918,1,9,922,1,0
106-2-1,4,3,TEST,2,3,2,0,1,138687,2,696,1,9,686,1,0
106-2-1,4,3,TEST,3,3,4,0,0,140337,2,461,1,0,443,1,0
106-2-1,4,3,TEST,4,3,3,1,0,141806,1,665,1,0,669,1,0
106-2-1,4,3,TEST,5,3,2,0,1,143330,2,878,1,9,884,1,0
106-2-1,4,3,TEST,6,3,1,1,1,145501,1,514,1,9,535,1,0
106-2-1,4,3,TEST,7,3,4,0,0,146889,2,516,1,0,502,1,0
106-2-1,4,3,TEST,8,3,3,1,0,148383,1,606,1,0,622,1,0
106-2-1,4,3,TEST,9,3,4,0,0,150114,2,655,1,0,644,1,0
106-2-1,4,3,TEST,10,3,2,0,1,151795,2,581,1,9,586,1,0
106-2-1,4,3,TEST,11,3,3,1,0,153430,1,576,1,0,580,1,0
106-2-1,4,3,TEST,12,3,1,1,1,155323,1,566,1,9,586,1,0
106-2-1,4,3,TEST,13,3,3,1,0,156819,1,598,1,0,616,1,0
106-2-1,4,3,TEST,14,3,2,0,1,158514,2,749,1,9,738,1,0
106-2-1,4,3,TEST,15,3,1,1,1,160263,1,606,1,9,613,1,0
106-2-1,4,3,TEST,16,3,4,0,0,162099,2,573,1,0,553,1,0
106-2-1,4,3,TEST,17,3,2,0,1,163744,2,645,1,9,649,1,0
106-2-1,4,3,TEST,18,3,3,1,0,165253,1,544,1,0,554,1,0
106-2-1,4,3,TEST,19,3,1,1,1,166905,1,674,1,9,684,1,0
106-2-1,4,3,TEST,20,3,4,0,0,168482,2,541,1,0,533,1,0
106-2-1,4,3,TEST,21,3,2,0,1,170250,2,610,1,9,592,1,0
106-2-1,4,3,TEST,22,3,1,1,1,171984,1,579,1,9,575,1,0
106-2-1,4,3,TEST,23,3,3,1,0,173435,1,584,1,0,596,1,0
106-2-1,4,3,TEST,24,3,4,0,0,175193,2,468,1,0,498,1,0
106-2-1,4,3,TEST,25,3,3,1,0,176576,1,738,1,0,734,1,0
