subnum,block,trial,direction,stim,offset,fixationstart,delaytime,promptstart,arrowstart,maskstart,rt,corresp,resp,corr,bivalentcorr
105-3-2,P,0,-1,U,1,3964,1500,5469,5976,5977,516,<up>,<up>,1,1
105-3-2,P,0,-1,L,1,6516,3500,10021,10526,10526,580,<left>,<left>,1,1
105-3-2,P,0,-1,D,1,11129,2250,13384,13890,13891,568,<down>,<down>,1,1
105-3-2,P,0,-1,L,1,14485,2750,17239,17744,17744,585,<left>,<left>,1,1
105-3-2,P,0,1,D,1,18354,1750,20109,20616,20617,566,<down>,<down>,1,1
105-3-2,P,0,-1,D,1,21205,3250,24460,24965,24966,442,<down>,<down>,1,1
105-3-2,P,0,1,U,2,25431,2000,27437,27943,27943,601,<up>,<up>,1,1
105-3-2,P,0,-1,R,1,28561,2250,30818,31323,31323,469,<right>,<right>,1,1
105-3-2,P,0,1,R,1,34434,1750,36189,36395,36395,518,<right>,<right>,1,1
105-3-2,P,0,1,R,1,36928,2250,39184,39391,39391,618,<right>,<right>,1,1
105-3-2,P,0,1,L,2,40026,2750,42782,42989,42989,695,<left>,<left>,1,1
105-3-2,P,0,1,L,2,43703,3500,47209,47415,47415,635,<left>,<left>,1,1
105-3-2,P,0,1,U,1,48060,3500,51565,51771,51771,483,<up>,<up>,1,1
105-3-2,P,0,-1,R,2,52282,2750,55037,55244,55244,540,<right>,<right>,1,1
105-3-2,P,0,-1,U,1,55801,3250,59056,59263,59263,532,<up>,<up>,1,1
105-3-2,P,0,-1,U,2,59814,1500,61319,61526,61527,616,<up>,<up>,1,1
105-3-2,T,1,-1,L,2,64931,2250,67186,67392,67393,627,<left>,<left>,1,1
105-3-2,T,2,-1,D,1,68036,2000,70042,70247,70248,498,<down>,<down>,1,1
105-3-2,T,3,1,D,2,70762,2500,73268,73475,73475,636,<down>,<down>,1,1
105-3-2,T,4,-1,R,2,74127,2750,76881,77088,77089,618,<right>,<right>,1,1
105-3-2,T,5,-1,D,1,77719,2000,79725,79932,79932,471,<down>,<down>,1,1
105-3-2,T,6,1,L,2,80427,2000,82432,82637,82638,669,<left>,<left>,1,1
105-3-2,T,7,1,U,2,83324,3500,86828,87035,87036,628,<up>,<up>,1,1
105-3-2,T,8,-1,U,2,87684,1750,89440,89647,89647,570,<up>,<up>,1,1
105-3-2,T,9,1,R,2,90235,2250,92491,92698,92698,737,<right>,<right>,1,1
105-3-2,T,10,1,L,1,93449,2500,95955,96162,96162,489,<left>,<left>,1,1
105-3-2,T,11,-1,R,2,96666,2500,99170,99375,99376,575,<right>,<right>,1,1
105-3-2,T,12,-1,R,1,99976,2000,101981,102186,102187,428,<right>,<right>,1,1
105-3-2,T,13,1,L,2,102634,2500,105139,105344,105345,538,<left>,<left>,1,1
105-3-2,T,14,1,D,1,105897,1750,107652,107859,107859,483,<down>,<down>,1,1
105-3-2,T,15,1,U,2,108359,1750,110114,110320,110321,672,<up>,<up>,1,1
105-3-2,T,16,-1,L,2,111015,2000,113021,113228,113228,640,<left>,<left>,1,1
105-3-2,T,17,-1,D,1,113883,2000,115888,116095,116095,502,<down>,<down>,1,1
105-3-2,T,18,-1,R,2,116609,2500,119114,119321,119322,575,<right>,<right>,1,1
105-3-2,T,19,-1,L,1,119909,2250,122164,122371,122371,501,<left>,<left>,1,1
105-3-2,T,20,-1,U,2,122889,2500,125393,125601,125601,579,<up>,<up>,1,1
105-3-2,T,21,-1,R,2,126195,3250,129451,129658,129659,674,<right>,<right>,1,1
105-3-2,T,22,1,L,1,130344,1500,131850,132056,132056,562,<left>,<left>,1,1
105-3-2,T,23,-1,D,1,132628,2000,134634,134840,134841,455,<down>,<down>,1,1
105-3-2,T,24,1,R,1,135314,2000,137319,137526,137526,509,<right>,<right>,1,1
105-3-2,T,25,-1,R,1,138051,3250,141307,141514,141514,455,<right>,<right>,1,1
105-3-2,T,26,1,R,2,141985,2750,144741,144948,144948,602,<right>,<right>,1,1
105-3-2,T,27,1,D,2,145574,3500,149079,149285,149286,631,<down>,<down>,1,1
105-3-2,T,28,-1,R,2,149936,1500,151441,151648,151648,505,<right>,<right>,1,1
105-3-2,T,29,1,D,2,152168,2750,154923,155130,155130,671,<down>,<down>,1,1
105-3-2,T,30,-1,U,1,155817,2250,158073,158280,158281,532,<up>,<up>,1,1
105-3-2,T,31,-1,L,2,158823,1750,160577,160783,160784,515,<left>,<right>,0,1
105-3-2,T,32,-1,D,2,161317,1750,163071,163278,163278,649,<down>,<down>,1,1
105-3-2,T,33,1,U,1,163943,3000,166949,167155,167155,556,<up>,<up>,1,1
105-3-2,T,34,-1,U,2,167728,2250,169983,170188,170189,545,<up>,<up>,1,1
105-3-2,T,35,-1,D,2,170750,1500,172254,172461,172462,547,<down>,<down>,1,1
105-3-2,T,36,-1,U,1,173025,2000,175031,175237,175237,525,<up>,<up>,1,1
105-3-2,T,37,-1,D,1,175790,2500,178296,178503,178503,450,<down>,<down>,1,1
105-3-2,T,38,-1,D,2,178976,3250,182232,182438,182439,673,<down>,<down>,1,1
105-3-2,T,39,1,L,1,183124,2750,185881,186087,186087,552,<left>,<left>,1,1
105-3-2,T,40,-1,L,2,186659,3250,189915,190122,190122,561,<left>,<left>,1,1
105-3-2,T,41,-1,D,2,190705,2000,192711,192918,192918,638,<down>,<down>,1,1
105-3-2,T,42,-1,D,2,193568,3500,197073,197280,197281,639,<down>,<down>,1,1
105-3-2,T,43,-1,L,2,197933,2750,200689,200896,200897,632,<left>,<left>,1,1
105-3-2,T,44,-1,D,2,201540,1750,203295,203500,203501,480,<down>,<down>,1,1
105-3-2,T,45,-1,L,2,204003,3500,207508,207714,207715,551,<left>,<left>,1,1
105-3-2,T,46,-1,L,2,208283,1500,209788,209995,209995,544,<left>,<left>,1,1
105-3-2,T,47,1,L,2,210555,2000,212560,212765,212766,627,<left>,<left>,1,1
105-3-2,T,48,1,U,1,213414,1500,214918,215126,215126,509,<up>,<up>,1,1
105-3-2,T,49,-1,U,2,215659,1500,217164,217369,217370,581,<up>,<up>,1,1
105-3-2,T,50,1,D,2,217974,3500,221480,221686,221687,597,<down>,<down>,1,1
