subnum,block,trial,direction,stim,offset,fixationstart,delaytime,promptstart,arrowstart,maskstart,rt,corresp,resp,corr,bivalentcorr
207-4-4,P,0,1,D,2,3004,2750,5761,6267,6268,815,<down>,<down>,1,1
207-4-4,P,0,1,D,2,7096,2750,9850,10358,10358,483,<down>,<down>,1,1
207-4-4,P,0,1,R,1,10864,2250,13120,13626,13626,455,<right>,<right>,1,1
207-4-4,P,0,1,D,1,14106,2000,16111,16617,16618,533,<down>,<down>,1,1
207-4-4,P,0,1,D,2,17170,1500,18677,19185,19185,405,<down>,<down>,1,1
207-4-4,P,0,-1,L,2,19612,1750,21368,21875,21876,411,<left>,<left>,1,1
207-4-4,P,0,-1,U,1,22309,1500,23814,24321,24322,551,<up>,<up>,1,1
207-4-4,P,0,-1,D,1,24889,1750,26645,27153,27153,550,<down>,<down>,1,1
207-4-4,P,0,-1,R,2,29830,3500,33335,33541,33542,676,<right>,<right>,1,1
207-4-4,P,0,-1,L,1,34231,1750,35987,36195,36195,666,<left>,<left>,1,1
207-4-4,P,0,-1,U,2,36869,2500,39375,39582,39583,841,<up>,<up>,1,1
207-4-4,P,0,-1,U,2,40436,2500,42941,43147,43148,595,<up>,<up>,1,1
207-4-4,P,0,-1,R,1,43756,1500,45263,45469,45470,628,<right>,<right>,1,1
207-4-4,P,0,1,U,1,46108,3000,49114,49320,49321,519,<up>,<up>,1,1
207-4-4,P,0,1,D,2,49852,2500,52359,52567,52567,618,<down>,<down>,1,1
207-4-4,P,0,1,L,2,53198,3250,56455,56663,56663,585,<left>,<left>,1,1
207-4-4,T,1,-1,U,2,59003,2500,61509,61715,61715,620,<up>,<up>,1,1
207-4-4,T,2,-1,D,1,62347,3500,65853,66060,66061,581,<down>,<down>,1,1
207-4-4,T,3,-1,D,1,66651,2250,68907,69113,69113,579,<down>,<down>,1,1
207-4-4,T,4,1,D,1,69706,1500,71211,71417,71418,644,<down>,<down>,1,1
207-4-4,T,5,1,R,2,72072,2000,74078,74284,74285,638,<right>,<right>,1,1
207-4-4,T,6,-1,R,2,74937,3250,78193,78399,78400,834,<right>,<right>,1,1
207-4-4,T,7,1,R,1,79246,1750,81002,81208,81208,640,<right>,<right>,1,1
207-4-4,T,8,-1,R,2,81861,1750,83616,83822,83823,719,<right>,<right>,1,1
207-4-4,T,9,1,R,2,84555,2250,86810,87016,87017,706,<right>,<right>,1,1
207-4-4,T,10,1,L,1,87736,3250,90993,91200,91201,669,<left>,<left>,1,1
207-4-4,T,11,-1,D,2,91883,2500,94390,94598,94598,600,<down>,<down>,1,1
207-4-4,T,12,-1,D,2,95211,3000,98216,98422,98423,616,<down>,<down>,1,1
207-4-4,T,13,1,D,2,99049,2750,101804,102010,102010,583,<down>,<down>,1,1
207-4-4,T,14,-1,U,2,102606,2500,105112,105320,105321,916,<up>,<up>,1,1
207-4-4,T,15,-1,R,2,106250,2500,108757,108963,108964,605,<right>,<right>,1,1
207-4-4,T,16,1,D,2,109582,2500,112087,112294,112294,568,<down>,<down>,1,1
207-4-4,T,17,-1,L,2,112874,1750,114630,114836,114837,625,<left>,<left>,1,1
207-4-4,T,18,-1,U,2,115472,2250,117727,117935,117935,600,<up>,<up>,1,1
207-4-4,T,19,-1,L,2,118545,2750,121300,121507,121507,628,<left>,<left>,1,1
207-4-4,T,20,-1,U,2,122148,3000,125154,125360,125361,561,<up>,<up>,1,1
207-4-4,T,21,-1,L,1,125931,3250,129186,129392,129392,613,<left>,<left>,1,1
207-4-4,T,22,1,U,1,130017,3000,133023,133231,133231,516,<up>,<up>,1,1
207-4-4,T,23,-1,D,2,133757,2500,136264,136472,136472,615,<down>,<down>,1,1
207-4-4,T,24,-1,U,1,137099,1750,138854,139062,139062,539,<up>,<up>,1,1
207-4-4,T,25,-1,L,1,139613,1500,141119,141325,141325,492,<left>,<left>,1,1
207-4-4,T,26,1,D,1,141828,2750,144584,144790,144790,536,<down>,<down>,1,1
207-4-4,T,27,-1,L,1,145338,3250,148593,148799,148800,637,<left>,<left>,1,1
207-4-4,T,28,-1,R,1,149448,3000,152454,152660,152660,616,<right>,<right>,1,1
207-4-4,T,29,1,R,2,153285,1750,155041,155247,155248,601,<right>,<right>,1,1
207-4-4,T,30,1,U,2,155862,3000,158867,159073,159074,568,<up>,<up>,1,1
207-4-4,T,31,-1,D,2,159653,1750,161408,161615,161615,626,<down>,<down>,1,1
207-4-4,T,32,-1,U,2,162254,2500,164759,164965,164965,622,<up>,<up>,1,1
207-4-4,T,33,-1,L,2,165600,3250,168856,169065,169065,549,<left>,<left>,1,1
207-4-4,T,34,1,D,2,169626,1750,171383,171589,171589,611,<down>,<down>,1,1
207-4-4,T,35,-1,R,1,172210,3500,175715,175921,175922,552,<right>,<right>,1,1
207-4-4,T,36,1,D,2,176487,2750,179243,179449,179450,586,<down>,<down>,1,1
207-4-4,T,37,1,D,1,180048,2750,182804,183012,183012,544,<down>,<down>,1,1
207-4-4,T,38,1,U,2,183567,2750,186324,186530,186531,583,<up>,<up>,1,1
207-4-4,T,39,1,R,2,187128,2500,189633,189839,189839,648,<right>,<right>,1,1
207-4-4,T,40,-1,L,2,190500,1750,192256,192462,192463,599,<left>,<left>,1,1
207-4-4,T,41,1,R,1,193071,1750,194827,195035,195035,732,<right>,<right>,1,1
207-4-4,T,42,-1,D,2,195780,2750,198535,198742,198743,556,<down>,<down>,1,1
207-4-4,T,43,-1,U,1,199313,2250,201568,201775,201776,591,<up>,<up>,1,1
207-4-4,T,44,-1,R,2,202377,2000,204383,204589,204589,763,<right>,<right>,1,1
207-4-4,T,45,-1,D,1,205364,3000,208369,208575,208575,661,<down>,<down>,1,1
207-4-4,T,46,1,U,1,209249,3500,212756,212964,212964,613,<up>,<up>,1,1
207-4-4,T,47,-1,D,1,213589,3000,216594,216800,216800,550,<down>,<down>,1,1
207-4-4,T,48,-1,U,2,217359,3250,220615,220821,220821,695,<up>,<up>,1,1
207-4-4,T,49,-1,L,1,221530,1750,223285,223491,223492,579,<left>,<left>,1,1
207-4-4,T,50,-1,L,2,224082,3250,227338,227544,227545,653,<left>,<left>,1,1
