subnum,stimtype,block,trialtype,trial,condition,stim,dim1,dim2,time0,resp1,rt1,corr1,resp2,rt2,corr2,tooslow
208-2-4,4,1,PRACTICE,-25,1,3,1,0,6172,1,428,1,NA,0,0,0
208-2-4,4,1,PRACTICE,-24,1,1,1,1,7502,1,381,1,NA,0,0,0
208-2-4,4,1,PRACTICE,-23,1,2,0,1,9169,1,430,0,NA,0,0,0
208-2-4,4,1,PRACTICE,-22,1,4,0,0,11045,2,409,1,NA,0,0,0
208-2-4,4,1,PRACTICE,-21,1,4,0,0,12504,2,388,1,NA,0,0,0
208-2-4,4,1,PRACTICE,-20,1,3,1,0,13998,1,368,1,NA,0,0,0
208-2-4,4,1,PRACTICE,-19,1,1,1,1,15573,1,364,1,NA,0,0,0
208-2-4,4,1,PRACTICE,-18,1,2,0,1,17211,2,432,1,NA,0,0,0
208-2-4,4,1,TEST,1,1,1,1,1,18838,1,441,1,NA,0,0,0
208-2-4,4,1,TEST,2,1,3,1,0,20430,1,448,1,NA,0,0,0
208-2-4,4,1,TEST,3,1,4,0,0,22051,2,384,1,NA,0,0,0
208-2-4,4,1,TEST,4,1,2,0,1,23602,2,396,1,NA,0,0,0
208-2-4,4,1,TEST,5,1,1,1,1,25058,1,409,1,NA,0,0,0
208-2-4,4,1,TEST,6,1,4,0,0,26682,2,377,1,NA,0,0,0
208-2-4,4,1,TEST,7,1,3,1,0,28153,1,383,1,NA,0,0,0
208-2-4,4,1,TEST,8,1,2,0,1,29650,2,383,1,NA,0,0,0
208-2-4,4,1,TEST,9,1,3,1,0,31274,1,380,1,NA,0,0,0
208-2-4,4,1,TEST,10,1,1,1,1,32771,1,385,1,NA,0,0,0
208-2-4,4,1,TEST,11,1,4,0,0,34220,2,466,1,NA,0,0,0
208-2-4,4,1,TEST,12,1,2,0,1,35810,2,352,1,NA,0,0,0
208-2-4,4,1,TEST,13,1,1,1,1,37313,1,368,1,NA,0,0,0
208-2-4,4,1,TEST,14,1,4,0,0,38719,2,460,1,NA,0,0,0
208-2-4,4,1,TEST,15,1,3,1,0,40245,1,358,1,NA,0,0,0
208-2-4,4,1,TEST,16,1,2,0,1,41450,2,435,1,NA,0,0,0
208-2-4,4,1,TEST,17,1,1,1,1,43124,1,388,1,NA,0,0,0
208-2-4,4,1,TEST,18,1,4,0,0,44617,2,324,1,NA,0,0,0
208-2-4,4,1,TEST,19,1,3,1,0,45812,1,296,1,NA,0,0,0
208-2-4,4,1,TEST,20,1,2,0,1,47352,2,324,1,NA,0,0,0
208-2-4,4,1,TEST,21,1,4,0,0,48751,2,421,1,NA,0,0,0
208-2-4,4,1,TEST,22,1,1,1,1,50304,1,368,1,NA,0,0,0
208-2-4,4,1,TEST,23,1,2,0,1,51560,2,350,1,NA,0,0,0
208-2-4,4,1,TEST,24,1,3,1,0,52761,1,411,1,NA,0,0,0
208-2-4,4,1,TEST,25,1,4,0,0,54216,2,306,1,NA,0,0,0
208-2-4,4,2,PRACTICE,-25,2,1,1,1,58610,NA,0,0,9,404,1,0
208-2-4,4,2,PRACTICE,-24,2,2,0,1,60338,NA,0,0,9,374,1,0
208-2-4,4,2,PRACTICE,-23,2,3,1,0,61559,NA,0,0,0,733,1,0
208-2-4,4,2,PRACTICE,-22,2,4,0,0,63237,NA,0,0,0,506,1,0
208-2-4,4,2,PRACTICE,-21,2,1,1,1,64671,NA,0,0,9,407,1,0
208-2-4,4,2,PRACTICE,-20,2,3,1,0,66169,NA,0,0,0,383,1,0
208-2-4,4,2,PRACTICE,-19,2,4,0,0,67742,NA,0,0,0,335,1,0
208-2-4,4,2,PRACTICE,-18,2,2,0,1,69237,NA,0,0,9,500,1,0
208-2-4,4,2,TEST,1,2,3,1,0,70843,NA,0,0,0,380,1,0
208-2-4,4,2,TEST,2,2,2,0,1,72214,NA,0,0,9,366,1,0
208-2-4,4,2,TEST,3,2,4,0,0,73636,NA,0,0,0,293,1,0
208-2-4,4,2,TEST,4,2,1,1,1,75240,NA,0,0,9,366,1,0
208-2-4,4,2,TEST,5,2,3,1,0,76756,NA,0,0,0,281,1,0
208-2-4,4,2,TEST,6,2,2,0,1,78184,NA,0,0,9,294,1,0
208-2-4,4,2,TEST,7,2,4,0,0,79359,NA,0,0,0,296,1,0
208-2-4,4,2,TEST,8,2,1,1,1,80517,NA,0,0,0,335,0,0
208-2-4,4,2,TEST,9,2,4,0,0,82467,NA,0,0,0,450,1,0
208-2-4,4,2,TEST,10,2,3,1,0,84190,NA,0,0,0,370,1,0
208-2-4,4,2,TEST,11,2,1,1,1,85795,NA,0,0,9,464,1,0
208-2-4,4,2,TEST,12,2,2,0,1,87573,NA,0,0,9,520,1,0
208-2-4,4,2,TEST,13,2,3,1,0,89234,NA,0,0,0,384,1,0
208-2-4,4,2,TEST,14,2,4,0,0,90515,NA,0,0,0,340,1,0
208-2-4,4,2,TEST,15,2,2,0,1,91711,NA,0,0,9,473,1,0
208-2-4,4,2,TEST,16,2,1,1,1,93369,NA,0,0,9,432,1,0
208-2-4,4,2,TEST,17,2,3,1,0,94959,NA,0,0,0,343,1,0
208-2-4,4,2,TEST,18,2,4,0,0,96177,NA,0,0,0,512,1,0
208-2-4,4,2,TEST,19,2,2,0,1,97672,NA,0,0,9,350,1,0
208-2-4,4,2,TEST,20,2,1,1,1,99107,NA,0,0,9,349,1,0
208-2-4,4,2,TEST,21,2,3,1,0,100599,NA,0,0,0,252,1,0
208-2-4,4,2,TEST,22,2,1,1,1,102027,NA,0,0,9,365,1,0
208-2-4,4,2,TEST,23,2,2,0,1,103709,NA,0,0,0,280,0,0
208-2-4,4,2,TEST,24,2,4,0,0,105384,NA,0,0,0,358,1,0
208-2-4,4,2,TEST,25,2,1,1,1,106572,NA,0,0,9,365,1,0
208-2-4,4,3,PRACTICE,-25,3,2,0,1,111253,2,480,1,9,489,1,0
208-2-4,4,3,PRACTICE,-24,3,1,1,1,113023,1,582,1,9,456,1,0
208-2-4,4,3,PRACTICE,-23,3,3,1,0,114711,1,564,1,0,568,1,0
208-2-4,4,3,PRACTICE,-22,3,4,0,0,116321,2,490,1,0,484,1,0
208-2-4,4,3,PRACTICE,-21,3,2,0,1,118019,2,469,1,9,465,1,0
208-2-4,4,3,PRACTICE,-20,3,3,1,0,119380,1,458,1,0,464,1,0
208-2-4,4,3,PRACTICE,-19,3,4,0,0,121166,2,489,1,0,479,1,0
208-2-4,4,3,PRACTICE,-18,3,1,1,1,122907,1,376,1,9,372,1,0
208-2-4,4,3,TEST,1,3,4,0,0,124329,2,424,1,0,420,1,0
208-2-4,4,3,TEST,2,3,3,1,0,125637,1,410,1,9,451,0,0
208-2-4,4,3,TEST,3,3,2,0,1,127607,2,506,1,9,502,1,0
208-2-4,4,3,TEST,4,3,1,1,1,129224,1,498,1,9,502,1,0
208-2-4,4,3,TEST,5,3,3,1,0,131028,1,428,1,0,408,1,0
208-2-4,4,3,TEST,6,3,4,0,0,132608,2,780,1,0,784,1,0
208-2-4,4,3,TEST,7,3,2,0,1,134417,2,477,1,9,455,1,0
208-2-4,4,3,TEST,8,3,1,1,1,136181,1,400,1,0,447,0,0
208-2-4,4,3,TEST,9,3,4,0,0,138359,2,390,1,0,374,1,0
208-2-4,4,3,TEST,10,3,1,1,1,139602,1,394,1,9,386,1,0
208-2-4,4,3,TEST,11,3,2,0,1,140933,2,440,1,9,452,1,0
208-2-4,4,3,TEST,12,3,3,1,0,142483,1,505,1,0,509,1,0
208-2-4,4,3,TEST,13,3,1,1,1,143832,1,631,1,9,663,1,0
208-2-4,4,3,TEST,14,3,3,1,0,145812,2,375,0,0,382,1,0
208-2-4,4,3,TEST,15,3,4,0,0,147597,2,529,1,0,549,1,0
208-2-4,4,3,TEST,16,3,2,0,1,149103,2,508,1,9,512,1,0
208-2-4,4,3,TEST,17,3,1,1,1,150706,1,422,1,9,439,1,0
208-2-4,4,3,TEST,18,3,2,0,1,152473,2,610,1,9,584,1,0
208-2-4,4,3,TEST,19,3,3,1,0,154411,1,446,1,0,456,1,0
208-2-4,4,3,TEST,20,3,4,0,0,155913,2,524,1,0,510,1,0
208-2-4,4,3,TEST,21,3,3,1,0,157367,1,442,1,0,454,1,0
208-2-4,4,3,TEST,22,3,2,0,1,159115,2,404,1,9,400,1,0
208-2-4,4,3,TEST,23,3,4,0,0,160508,2,517,1,0,513,1,0
208-2-4,4,3,TEST,24,3,1,1,1,161869,1,452,1,9,470,1,0
208-2-4,4,3,TEST,25,3,2,0,1,163651,2,450,1,9,470,1,0
