subnum,block,trial,direction,stim,offset,fixationstart,delaytime,promptstart,arrowstart,maskstart,rt,corresp,resp,corr,bivalentcorr
206-4-4,P,0,-1,U,2,2260,1750,4016,4522,4523,440,<up>,<up>,1,1
206-4-4,P,0,1,D,2,4986,1500,6490,6996,6996,480,<down>,<down>,1,1
206-4-4,P,0,-1,D,2,7499,3250,10753,11258,11259,376,<down>,<down>,1,1
206-4-4,P,0,-1,U,2,11657,2250,13911,14419,14419,606,<up>,<up>,1,1
206-4-4,P,0,-1,L,2,15050,3500,18556,19061,19062,569,<left>,<left>,1,1
206-4-4,P,0,-1,R,1,19655,3500,23159,23666,23666,423,<right>,<right>,1,1
206-4-4,P,0,1,L,2,24114,2250,26368,26875,26876,416,<left>,<left>,1,1
206-4-4,P,0,1,U,2,27316,3500,30822,31328,31328,458,<up>,<up>,1,1
206-4-4,P,0,1,R,1,33490,3250,36746,36953,36954,477,<right>,<right>,1,1
206-4-4,P,0,1,D,1,37446,3250,40700,40907,40908,481,<down>,<down>,1,1
206-4-4,P,0,1,L,1,41410,2500,43915,44123,44123,422,<left>,<left>,1,1
206-4-4,P,0,1,U,1,44568,2250,46822,47028,47029,452,<up>,<up>,1,1
206-4-4,P,0,-1,L,1,47504,2000,49509,49717,49717,604,<left>,<left>,1,1
206-4-4,P,0,-1,D,1,50333,2750,53088,53293,53293,518,<down>,<down>,1,1
206-4-4,P,0,1,D,2,53823,1750,55578,55783,55784,495,<down>,<down>,1,1
206-4-4,P,0,-1,U,2,56296,1750,58051,58258,58258,506,<up>,<up>,1,1
206-4-4,T,1,-1,D,2,60254,1500,61759,61964,61965,455,<down>,<up>,0,1
206-4-4,T,2,-1,D,2,62433,2500,64938,65144,65144,510,<down>,<down>,1,1
206-4-4,T,3,1,U,1,65672,1500,67177,67382,67383,491,<up>,<up>,1,1
206-4-4,T,4,1,D,2,67884,2250,70139,70344,70344,518,<down>,<down>,1,1
206-4-4,T,5,1,L,2,70876,2000,72880,73087,73087,518,<left>,<left>,1,1
206-4-4,T,6,1,U,1,73620,3000,76626,76832,76833,451,<up>,<up>,1,1
206-4-4,T,7,1,D,2,77298,2000,79303,79509,79510,566,<down>,<down>,1,1
206-4-4,T,8,-1,D,2,80087,3250,83342,83547,83548,530,<down>,<down>,1,1
206-4-4,T,9,-1,L,1,84089,3500,87593,87800,87800,568,<left>,<left>,1,1
206-4-4,T,10,-1,D,2,88377,3000,91382,91589,91589,573,<down>,<down>,1,1
206-4-4,T,11,-1,R,1,92182,2500,94687,94894,94894,554,<right>,<right>,1,1
206-4-4,T,12,1,D,2,95463,2750,98219,98425,98426,556,<down>,<down>,1,1
206-4-4,T,13,1,R,2,98999,1750,100753,100958,100959,599,<right>,<right>,1,1
206-4-4,T,14,1,R,2,101583,2750,104338,104545,104545,540,<right>,<right>,1,1
206-4-4,T,15,1,R,1,105100,3250,108355,108561,108561,469,<right>,<right>,1,1
206-4-4,T,16,-1,U,1,109046,2250,111300,111507,111508,443,<up>,<up>,1,1
206-4-4,T,17,-1,U,2,111975,3000,114979,115184,115185,506,<up>,<up>,1,1
206-4-4,T,18,1,R,2,115702,3000,118708,118915,118915,609,<right>,<right>,1,1
206-4-4,T,19,-1,L,2,119540,2750,122295,122502,122502,519,<left>,<left>,1,1
206-4-4,T,20,-1,L,2,123036,3500,126541,126747,126748,500,<left>,<left>,1,1
206-4-4,T,21,1,R,2,127263,1750,129018,129223,129224,495,<right>,<right>,1,1
206-4-4,T,22,1,L,2,129736,2750,132491,132697,132697,568,<left>,<left>,1,1
206-4-4,T,23,-1,R,2,133280,1500,134786,134993,134993,542,<right>,<right>,1,1
206-4-4,T,24,-1,L,1,135552,1500,137057,137262,137263,435,<left>,<left>,1,1
206-4-4,T,25,1,L,2,137713,2750,140468,140673,140674,541,<left>,<left>,1,1
206-4-4,T,26,1,U,1,141227,2500,143731,143936,143937,448,<up>,<up>,1,1
206-4-4,T,27,1,D,2,144402,1500,145907,146114,146114,575,<down>,<down>,1,1
206-4-4,T,28,-1,U,1,146702,2750,149458,149665,149665,538,<up>,<up>,1,1
206-4-4,T,29,1,L,1,150216,2750,152970,153175,153176,475,<left>,<left>,1,1
206-4-4,T,30,1,U,2,153668,1500,155173,155380,155380,567,<up>,<up>,1,1
206-4-4,T,31,1,R,1,155964,2750,158719,158924,158925,471,<right>,<right>,1,1
206-4-4,T,32,1,D,2,159421,2250,161676,161883,161883,515,<down>,<down>,1,1
206-4-4,T,33,-1,L,2,162407,3250,165663,165870,165870,580,<left>,<left>,1,1
206-4-4,T,34,-1,L,2,166465,2000,168470,168675,168676,540,<left>,<left>,1,1
206-4-4,T,35,-1,D,2,169232,3500,172738,172944,172945,588,<down>,<down>,1,1
206-4-4,T,36,-1,R,2,173564,2750,176319,176524,176525,581,<right>,<right>,1,1
206-4-4,T,37,-1,U,1,177117,2750,179873,180080,180080,581,<up>,<up>,1,1
206-4-4,T,38,1,U,2,180672,2000,182677,182884,182885,577,<up>,<up>,1,1
206-4-4,T,39,-1,U,2,183476,3250,186730,186935,186936,489,<up>,<up>,1,1
206-4-4,T,40,1,U,1,187441,2250,189695,189901,189902,605,<up>,<up>,1,1
206-4-4,T,41,-1,U,1,190522,3000,193528,193733,193734,516,<up>,<up>,1,1
206-4-4,T,42,1,D,1,194264,1500,195769,195976,195976,772,<down>,<down>,1,1
206-4-4,T,43,1,D,1,196760,2000,198764,198970,198971,998,<down>,<down>,1,1
206-4-4,T,44,1,L,1,199978,2000,201982,202187,202188,535,<left>,<left>,1,1
206-4-4,T,45,-1,U,1,202739,2750,205496,205703,205703,521,<up>,<up>,1,1
206-4-4,T,46,-1,R,1,206237,3000,209242,209447,209448,500,<right>,<right>,1,1
206-4-4,T,47,-1,R,2,209962,3500,213467,213673,213674,548,<right>,<right>,1,1
206-4-4,T,48,1,R,1,214240,3250,217494,217699,217700,565,<right>,<right>,1,1
206-4-4,T,49,-1,D,2,218278,3000,221282,221487,221488,574,<down>,<down>,1,1
206-4-4,T,50,-1,L,2,222071,1750,223827,224034,224034,523,<left>,<left>,1,1
