subnum,stimtype,block,trialtype,trial,condition,stim,dim1,dim2,time0,resp1,rt1,corr1,resp2,rt2,corr2,tooslow
114-4-3,4,1,PRACTICE,-25,1,2,0,1,5079,2,448,1,NA,0,0,0
114-4-3,4,1,PRACTICE,-24,1,4,0,0,6804,2,355,1,NA,0,0,0
114-4-3,4,1,PRACTICE,-23,1,3,1,0,8313,1,319,1,NA,0,0,0
114-4-3,4,1,PRACTICE,-22,1,1,1,1,9884,1,377,1,NA,0,0,0
114-4-3,4,1,PRACTICE,-21,1,3,1,0,11142,1,412,1,NA,0,0,0
114-4-3,4,1,PRACTICE,-20,1,4,0,0,12680,2,347,1,NA,0,0,0
114-4-3,4,1,PRACTICE,-19,1,2,0,1,14138,2,422,1,NA,0,0,0
114-4-3,4,1,PRACTICE,-18,1,1,1,1,15453,1,395,1,NA,0,0,0
114-4-3,4,1,TEST,1,1,2,0,1,16701,2,422,1,NA,0,0,0
114-4-3,4,1,TEST,2,1,1,1,1,18348,1,350,1,NA,0,0,0
114-4-3,4,1,TEST,3,1,4,0,0,19801,2,315,1,NA,0,0,0
114-4-3,4,1,TEST,4,1,3,1,0,21189,1,401,1,NA,0,0,0
114-4-3,4,1,TEST,5,1,2,0,1,22516,2,371,1,NA,0,0,0
114-4-3,4,1,TEST,6,1,4,0,0,23878,2,410,1,NA,0,0,0
114-4-3,4,1,TEST,7,1,1,1,1,25221,1,367,1,NA,0,0,0
114-4-3,4,1,TEST,8,1,3,1,0,26921,2,290,0,NA,0,0,0
114-4-3,4,1,TEST,9,1,4,0,0,28570,2,358,1,NA,0,0,0
114-4-3,4,1,TEST,10,1,2,0,1,30077,2,365,1,NA,0,0,0
114-4-3,4,1,TEST,11,1,1,1,1,31669,1,340,1,NA,0,0,0
114-4-3,4,1,TEST,12,1,3,1,0,33304,1,374,1,NA,0,0,0
114-4-3,4,1,TEST,13,1,2,0,1,34722,2,389,1,NA,0,0,0
114-4-3,4,1,TEST,14,1,3,1,0,36231,1,335,1,NA,0,0,0
114-4-3,4,1,TEST,15,1,1,1,1,37709,1,351,1,NA,0,0,0
114-4-3,4,1,TEST,16,1,4,0,0,38941,2,508,1,NA,0,0,0
114-4-3,4,1,TEST,17,1,3,1,0,40717,1,353,1,NA,0,0,0
114-4-3,4,1,TEST,18,1,1,1,1,42115,1,402,1,NA,0,0,0
114-4-3,4,1,TEST,19,1,2,0,1,43518,2,389,1,NA,0,0,0
114-4-3,4,1,TEST,20,1,4,0,0,45123,2,354,1,NA,0,0,0
114-4-3,4,1,TEST,21,1,3,1,0,46641,1,344,1,NA,0,0,0
114-4-3,4,1,TEST,22,1,1,1,1,48244,1,339,1,NA,0,0,0
114-4-3,4,1,TEST,23,1,4,0,0,49425,2,397,1,NA,0,0,0
114-4-3,4,1,TEST,24,1,2,0,1,51077,2,333,1,NA,0,0,0
114-4-3,4,1,TEST,25,1,4,0,0,52281,2,359,1,NA,0,0,0
114-4-3,4,2,PRACTICE,-25,2,2,0,1,57250,NA,0,0,9,812,1,0
114-4-3,4,2,PRACTICE,-24,2,4,0,0,59087,NA,0,0,0,436,1,0
114-4-3,4,2,PRACTICE,-23,2,3,1,0,60693,NA,0,0,0,374,1,0
114-4-3,4,2,PRACTICE,-22,2,1,1,1,61929,NA,0,0,9,433,1,0
114-4-3,4,2,PRACTICE,-21,2,3,1,0,63628,NA,0,0,0,398,1,0
114-4-3,4,2,PRACTICE,-20,2,1,1,1,65320,NA,0,0,9,366,1,0
114-4-3,4,2,PRACTICE,-19,2,4,0,0,66888,NA,0,0,0,482,1,0
114-4-3,4,2,PRACTICE,-18,2,2,0,1,68397,NA,0,0,9,396,1,0
114-4-3,4,2,TEST,1,2,3,1,0,69803,NA,0,0,0,392,1,0
114-4-3,4,2,TEST,2,2,1,1,1,71366,NA,0,0,9,276,1,0
114-4-3,4,2,TEST,3,2,2,0,1,72802,NA,0,0,9,326,1,0
114-4-3,4,2,TEST,4,2,4,0,0,74237,NA,0,0,0,354,1,0
114-4-3,4,2,TEST,5,2,2,0,1,75872,NA,0,0,9,339,1,0
114-4-3,4,2,TEST,6,2,4,0,0,77419,NA,0,0,0,340,1,0
114-4-3,4,2,TEST,7,2,1,1,1,78715,NA,0,0,9,418,1,0
114-4-3,4,2,TEST,8,2,3,1,0,80044,NA,0,0,0,414,1,0
114-4-3,4,2,TEST,9,2,2,0,1,81787,NA,0,0,9,395,1,0
114-4-3,4,2,TEST,10,2,3,1,0,83041,NA,0,0,0,403,1,0
114-4-3,4,2,TEST,11,2,1,1,1,84591,NA,0,0,9,288,1,0
114-4-3,4,2,TEST,12,2,4,0,0,85985,NA,0,0,0,385,1,0
114-4-3,4,2,TEST,13,2,3,1,0,87540,NA,0,0,0,321,1,0
114-4-3,4,2,TEST,14,2,2,0,1,89024,NA,0,0,9,383,1,0
114-4-3,4,2,TEST,15,2,4,0,0,90703,NA,0,0,0,308,1,0
114-4-3,4,2,TEST,16,2,1,1,1,91881,NA,0,0,9,359,1,0
114-4-3,4,2,TEST,17,2,2,0,1,93355,NA,0,0,9,461,1,0
114-4-3,4,2,TEST,18,2,4,0,0,94856,NA,0,0,0,384,1,0
114-4-3,4,2,TEST,19,2,1,1,1,96507,NA,0,0,9,298,1,0
114-4-3,4,2,TEST,20,2,3,1,0,97697,NA,0,0,0,424,1,0
114-4-3,4,2,TEST,21,2,2,0,1,99033,NA,0,0,9,341,1,0
114-4-3,4,2,TEST,22,2,4,0,0,100383,NA,0,0,0,375,1,0
114-4-3,4,2,TEST,23,2,3,1,0,101742,NA,0,0,9,263,0,0
114-4-3,4,2,TEST,24,2,1,1,1,103781,NA,0,0,9,388,1,0
114-4-3,4,2,TEST,25,2,2,0,1,105093,NA,0,0,9,464,1,0
114-4-3,4,3,PRACTICE,-25,3,2,0,1,108786,2,830,1,9,826,1,0
114-4-3,4,3,PRACTICE,-24,3,4,0,0,110550,2,445,1,0,441,1,0
114-4-3,4,3,PRACTICE,-23,3,1,1,1,112038,1,355,1,9,373,1,0
114-4-3,4,3,PRACTICE,-22,3,3,1,0,113318,1,454,1,0,465,1,0
114-4-3,4,3,PRACTICE,-21,3,3,1,0,114923,1,370,1,0,374,1,0
114-4-3,4,3,PRACTICE,-20,3,1,1,1,116261,1,402,1,9,406,1,0
114-4-3,4,3,PRACTICE,-19,3,4,0,0,117860,2,412,1,0,416,1,0
114-4-3,4,3,PRACTICE,-18,3,2,0,1,119118,2,488,1,9,484,1,0
114-4-3,4,3,TEST,1,3,4,0,0,120906,2,464,1,0,456,1,0
114-4-3,4,3,TEST,2,3,2,0,1,122603,2,437,1,9,433,1,0
114-4-3,4,3,TEST,3,3,1,1,1,124278,1,360,1,9,388,1,0
114-4-3,4,3,TEST,4,3,3,1,0,125563,1,465,1,0,460,1,0
114-4-3,4,3,TEST,5,3,1,1,1,127017,1,446,1,9,458,1,0
114-4-3,4,3,TEST,6,3,3,1,0,128431,1,591,1,0,586,1,0
114-4-3,4,3,TEST,7,3,4,0,0,130233,2,417,1,0,421,1,0
114-4-3,4,3,TEST,8,3,2,0,1,131739,2,447,1,9,443,1,0
114-4-3,4,3,TEST,9,3,1,1,1,133207,1,488,1,9,500,1,0
114-4-3,4,3,TEST,10,3,4,0,0,134587,2,496,1,0,493,1,0
114-4-3,4,3,TEST,11,3,3,1,0,136094,1,565,1,0,548,1,0
114-4-3,4,3,TEST,12,3,2,0,1,137745,2,430,1,9,426,1,0
114-4-3,4,3,TEST,13,3,3,1,0,139202,1,472,1,0,478,1,0
114-4-3,4,3,TEST,14,3,4,0,0,140998,2,475,1,0,453,1,0
114-4-3,4,3,TEST,15,3,2,0,1,142796,2,467,1,9,464,1,0
114-4-3,4,3,TEST,16,3,1,1,1,144467,1,450,1,9,465,1,0
114-4-3,4,3,TEST,17,3,4,0,0,146106,2,402,1,0,390,1,0
114-4-3,4,3,TEST,18,3,2,0,1,147827,2,439,1,9,435,1,0
114-4-3,4,3,TEST,19,3,1,1,1,149435,1,374,1,9,384,1,0
114-4-3,4,3,TEST,20,3,3,1,0,150946,2,478,0,9,465,0,0
114-4-3,4,3,TEST,21,3,4,0,0,152845,2,590,1,0,572,1,0
114-4-3,4,3,TEST,22,3,3,1,0,154578,1,493,1,0,487,1,0
114-4-3,4,3,TEST,23,3,1,1,1,156122,1,380,1,9,398,1,0
114-4-3,4,3,TEST,24,3,2,0,1,157792,2,378,1,9,399,1,0
114-4-3,4,3,TEST,25,3,1,1,1,159289,1,462,1,9,480,1,0
