subnum,block,trial,direction,stim,offset,fixationstart,delaytime,promptstart,arrowstart,maskstart,rt,corresp,resp,corr,bivalentcorr
102-2-4,P,0,-1,R,2,3753,1500,5259,5767,5767,585,<right>,<right>,1,1
102-2-4,P,0,-1,D,2,6368,1500,7875,8382,8383,610,<down>,<down>,1,1
102-2-4,P,0,-1,U,2,9002,3000,12010,12517,12517,432,<up>,<up>,1,1
102-2-4,P,0,-1,U,2,12973,2000,14978,15485,15485,493,<up>,<up>,1,1
102-2-4,P,0,-1,U,2,16003,2500,18509,19015,19015,447,<up>,<up>,1,1
102-2-4,P,0,-1,R,1,19486,3000,22491,22997,22998,434,<right>,<down>,0,0
102-2-4,P,0,1,R,2,23460,2250,25715,26222,26222,637,<right>,<right>,1,1
102-2-4,P,0,1,L,2,26877,2750,29633,30139,30139,580,<left>,<left>,1,1
102-2-4,P,0,1,D,1,35100,1750,36856,37062,37063,607,<down>,<down>,1,1
102-2-4,P,0,1,L,2,37687,1750,39443,39649,39650,620,<left>,<left>,1,1
102-2-4,P,0,1,R,2,40286,2000,42291,42498,42498,605,<right>,<right>,1,1
102-2-4,P,0,1,D,1,43113,3500,46618,46825,46825,497,<down>,<down>,1,1
102-2-4,P,0,-1,L,1,47333,1500,48839,49045,49046,529,<left>,<left>,1,1
102-2-4,P,0,1,U,2,49586,3500,53093,53299,53299,585,<up>,<up>,1,1
102-2-4,P,0,-1,R,2,53902,3500,57407,57613,57614,591,<right>,<left>,0,1
102-2-4,P,0,-1,L,1,58220,1500,59725,59932,59932,608,<left>,<left>,1,1
102-2-4,T,1,1,U,1,62411,2250,64667,64874,64874,458,<up>,<up>,1,1
102-2-4,T,2,1,D,1,65346,2000,67352,67558,67558,554,<down>,<down>,1,1
102-2-4,T,3,-1,L,1,68126,2750,70882,71088,71089,629,<left>,<left>,1,1
102-2-4,T,4,-1,U,2,71729,2250,73985,74192,74193,664,<up>,<up>,1,1
102-2-4,T,5,-1,U,1,74873,1750,76628,76835,76835,456,<up>,<up>,1,1
102-2-4,T,6,-1,R,1,77302,2000,79309,79516,79517,527,<right>,<right>,1,1
102-2-4,T,7,1,D,1,80060,2750,82816,83022,83022,642,<down>,<down>,1,1
102-2-4,T,8,1,D,2,83677,2000,85682,85888,85889,722,<down>,<up>,0,1
102-2-4,T,9,-1,R,2,86623,2500,89129,89336,89336,763,<right>,<right>,1,1
102-2-4,T,10,-1,L,2,90110,1750,91865,92071,92071,606,<left>,<left>,1,1
102-2-4,T,11,-1,U,1,92687,3500,96193,96399,96400,558,<up>,<up>,1,1
102-2-4,T,12,-1,D,1,96968,2500,99473,99679,99679,767,<down>,<down>,1,1
102-2-4,T,13,-1,L,2,100462,3000,103467,103674,103675,556,<left>,<left>,1,1
102-2-4,T,14,1,R,2,104256,2500,106762,106968,106969,627,<right>,<right>,1,1
102-2-4,T,15,1,D,2,107607,3250,110862,111068,111068,1021,<down>,<down>,1,1
102-2-4,T,16,1,R,2,112098,3000,115104,115310,115311,640,<right>,<right>,1,1
102-2-4,T,17,-1,D,1,115972,2500,118477,118683,118684,571,<down>,<down>,1,1
102-2-4,T,18,-1,D,1,119268,3500,122774,122983,122983,552,<down>,<down>,1,1
102-2-4,T,19,1,D,1,123545,1750,125301,125507,125508,484,<down>,<down>,1,1
102-2-4,T,20,-1,L,1,126009,2000,128016,128222,128223,571,<left>,<left>,1,1
102-2-4,T,21,1,D,1,128809,3500,132315,132522,132522,522,<down>,<down>,1,1
102-2-4,T,22,1,R,1,133061,2250,135316,135523,135523,490,<right>,<right>,1,1
102-2-4,T,23,1,D,1,136031,2000,138037,138243,138244,455,<down>,<down>,1,1
102-2-4,T,24,-1,U,2,138715,2000,140721,140927,140927,718,<up>,<up>,1,1
102-2-4,T,25,-1,D,1,141656,2000,143662,143868,143869,549,<down>,<down>,1,1
102-2-4,T,26,1,U,2,144435,2000,146441,146647,146647,498,<up>,<down>,0,1
102-2-4,T,27,-1,L,2,147162,2000,149167,149373,149374,562,<left>,<left>,1,1
102-2-4,T,28,-1,R,1,149955,2500,152462,152668,152669,560,<right>,<right>,1,1
102-2-4,T,29,-1,D,2,153253,2000,155258,155464,155465,618,<down>,<down>,1,1
102-2-4,T,30,1,D,1,156101,3500,159607,159813,159813,569,<down>,<down>,1,1
102-2-4,T,31,1,L,1,160395,2000,162400,162609,162609,664,<left>,<left>,1,1
102-2-4,T,32,-1,R,1,163285,1500,164790,164996,164997,738,<right>,<right>,1,1
102-2-4,T,33,1,D,2,165747,2500,168252,168458,168459,623,<down>,<down>,1,1
102-2-4,T,34,1,U,2,169097,3250,172352,172559,172559,619,<up>,<up>,1,1
102-2-4,T,35,1,D,2,173203,1500,174709,174915,174915,585,<down>,<down>,1,1
102-2-4,T,36,-1,U,1,175526,2750,178282,178488,178488,531,<up>,<up>,1,1
102-2-4,T,37,-1,U,1,179034,3000,182040,182248,182249,502,<up>,<up>,1,1
102-2-4,T,38,-1,L,2,182765,1750,184520,184727,184727,638,<left>,<left>,1,1
102-2-4,T,39,1,R,2,185381,1750,187137,187343,187343,542,<right>,<right>,1,1
102-2-4,T,40,-1,R,1,187901,3000,190907,191113,191113,663,<right>,<right>,1,1
102-2-4,T,41,1,L,2,191786,1500,193293,193499,193499,764,<left>,<right>,0,1
102-2-4,T,42,1,U,2,194280,1750,196036,196242,196243,537,<up>,<up>,1,1
102-2-4,T,43,1,R,1,196795,2250,199051,199257,199257,596,<right>,<right>,1,1
102-2-4,T,44,-1,L,2,199862,2250,202117,202323,202323,527,<left>,<left>,1,1
102-2-4,T,45,1,L,2,202866,3000,205871,206077,206077,580,<left>,<left>,1,1
102-2-4,T,46,-1,L,1,206669,3500,210175,210381,210382,658,<left>,<left>,1,1
102-2-4,T,47,1,L,1,211057,2000,213062,213269,213269,512,<left>,<left>,1,1
102-2-4,T,48,-1,L,1,213798,2000,215804,216010,216011,475,<left>,<left>,1,1
102-2-4,T,49,1,U,2,216505,1750,218261,218467,218467,598,<up>,<up>,1,1
102-2-4,T,50,-1,D,1,219075,1750,220830,221036,221037,593,<down>,<down>,1,1
