subnum,block,trial,direction,stim,offset,fixationstart,delaytime,promptstart,arrowstart,maskstart,rt,corresp,resp,corr,bivalentcorr
206-2-1,P,0,-1,D,1,37438,2000,39445,39953,39953,558,<down>,<down>,1,1
206-2-1,P,0,1,D,2,40537,1500,42043,42549,42549,529,<down>,<down>,1,1
206-2-1,P,0,1,L,2,43110,2000,45116,45622,45622,474,<left>,<left>,1,1
206-2-1,P,0,-1,U,1,46125,2750,48881,49387,49388,542,<up>,<up>,1,1
206-2-1,P,0,-1,D,2,49955,2750,52711,53219,53220,530,<down>,<down>,1,1
206-2-1,P,0,1,R,2,53781,1500,55287,55793,55793,485,<right>,<right>,1,1
206-2-1,P,0,1,R,1,56307,2250,58564,59070,59071,484,<right>,<right>,1,1
206-2-1,P,0,1,L,1,59598,3500,63104,63610,63611,405,<left>,<left>,1,1
206-2-1,P,0,1,L,1,65833,2250,68088,68297,68297,468,<left>,<left>,1,1
206-2-1,P,0,1,R,2,68781,2500,71287,71493,71494,558,<right>,<right>,1,1
206-2-1,P,0,-1,U,2,72072,3000,75079,75287,75287,568,<up>,<up>,1,1
206-2-1,P,0,-1,D,1,75868,2000,77874,78081,78081,513,<down>,<down>,1,1
206-2-1,P,0,1,D,2,78607,2750,81364,81572,81572,628,<down>,<down>,1,1
206-2-1,P,0,-1,L,2,82217,1750,83974,84182,84183,582,<left>,<left>,1,1
206-2-1,P,0,1,L,2,84782,2500,87288,87497,87498,602,<left>,<left>,1,1
206-2-1,P,0,-1,R,2,88115,3000,91122,91328,91329,566,<right>,<right>,1,1
206-2-1,T,1,-1,U,2,93915,2500,96421,96627,96628,530,<up>,<up>,1,1
206-2-1,T,2,1,R,1,97176,2750,99932,100139,100139,501,<right>,<right>,1,1
206-2-1,T,3,1,R,2,100663,1750,102419,102628,102628,574,<right>,<right>,1,1
206-2-1,T,4,1,R,1,103222,2250,105477,105683,105684,469,<right>,<right>,1,1
206-2-1,T,5,1,D,2,106166,3500,109671,109880,109880,574,<down>,<down>,1,1
206-2-1,T,6,-1,L,2,110478,2250,112735,112943,112943,553,<left>,<left>,1,1
206-2-1,T,7,-1,U,1,113511,2750,116268,116474,116475,584,<up>,<up>,1,1
206-2-1,T,8,1,D,2,117082,3250,120339,120546,120546,549,<down>,<down>,1,1
206-2-1,T,9,1,D,2,121113,1500,122618,122824,122825,524,<down>,<down>,1,1
206-2-1,T,10,-1,U,2,123361,3250,126617,126823,126824,608,<up>,<up>,1,1
206-2-1,T,11,-1,U,1,127455,1500,128960,129167,129167,503,<up>,<up>,1,1
206-2-1,T,12,-1,R,2,129689,3250,132945,133151,133152,606,<right>,<right>,1,1
206-2-1,T,13,1,D,1,133779,1750,135536,135743,135743,524,<down>,<down>,1,1
206-2-1,T,14,1,D,2,136282,1750,138038,138245,138245,667,<down>,<up>,0,1
206-2-1,T,15,-1,R,1,138927,1750,140683,140889,140890,500,<right>,<right>,1,1
206-2-1,T,16,1,U,2,141409,3500,144915,145122,145123,607,<up>,<up>,1,1
206-2-1,T,17,1,L,1,145752,1500,147257,147466,147467,514,<left>,<left>,1,1
206-2-1,T,18,1,L,1,147998,2750,150754,150963,150963,468,<left>,<left>,1,1
206-2-1,T,19,1,U,2,151452,2000,153459,153665,153666,503,<up>,<up>,1,1
206-2-1,T,20,1,L,2,154183,1750,155939,156145,156146,503,<left>,<left>,1,1
206-2-1,T,21,1,U,1,156669,1500,158175,158383,158384,448,<up>,<up>,1,1
206-2-1,T,22,1,U,1,158845,3250,162101,162310,162310,457,<up>,<up>,1,1
206-2-1,T,23,-1,D,1,162799,1750,164556,164763,164763,538,<down>,<down>,1,1
206-2-1,T,24,-1,L,1,165314,3250,168571,168779,168780,484,<left>,<right>,0,1
206-2-1,T,25,-1,R,1,169277,2000,171283,171492,171492,507,<right>,<right>,1,1
206-2-1,T,26,1,U,1,172020,3250,175275,175482,175482,491,<up>,<up>,1,1
206-2-1,T,27,1,L,1,176000,2750,178755,178961,178962,433,<left>,<left>,1,1
206-2-1,T,28,1,D,2,179413,3500,182919,183125,183126,747,<down>,<down>,1,1
206-2-1,T,29,1,U,2,183890,3000,186897,187103,187104,540,<up>,<up>,1,1
206-2-1,T,30,-1,L,1,187663,2000,189668,189875,189876,500,<left>,<left>,1,1
206-2-1,T,31,-1,U,1,190388,1750,192144,192353,192354,474,<up>,<up>,1,1
206-2-1,T,32,-1,D,2,192847,2000,194854,195060,195061,605,<down>,<down>,1,1
206-2-1,T,33,-1,D,1,195686,3500,199193,199401,199402,548,<down>,<down>,1,1
206-2-1,T,34,1,U,2,199966,3000,202973,203181,203182,641,<up>,<up>,1,1
206-2-1,T,35,1,D,1,203837,1500,205344,205552,205552,513,<down>,<down>,1,1
206-2-1,T,36,-1,D,1,206088,1500,207595,207801,207802,519,<down>,<down>,1,1
206-2-1,T,37,-1,U,1,208340,2250,210597,210803,210804,481,<up>,<up>,1,1
206-2-1,T,38,-1,U,1,211311,3500,214816,215022,215023,533,<up>,<up>,1,1
206-2-1,T,39,-1,L,1,215577,2750,218335,218541,218542,460,<left>,<left>,1,1
206-2-1,T,40,-1,L,1,219022,2250,221279,221488,221488,451,<left>,<left>,1,1
206-2-1,T,41,-1,L,2,221956,1500,223463,223669,223670,634,<left>,<left>,1,1
206-2-1,T,42,1,L,1,224324,1500,225831,226037,226038,538,<left>,<left>,1,1
206-2-1,T,43,1,R,2,226597,3250,229854,230062,230063,654,<right>,<right>,1,1
206-2-1,T,44,1,D,2,230727,2000,232733,232940,232940,598,<down>,<down>,1,1
206-2-1,T,45,1,D,2,233551,2500,236057,236263,236264,537,<down>,<down>,1,1
206-2-1,T,46,-1,R,2,236816,2000,238823,239031,239032,667,<right>,<right>,1,1
206-2-1,T,47,1,R,1,239716,2750,242473,242679,242679,498,<right>,<right>,1,1
206-2-1,T,48,-1,L,2,243197,2750,245954,246160,246161,538,<left>,<left>,1,1
206-2-1,T,49,-1,L,1,246715,2250,248970,249176,249177,498,<left>,<left>,1,1
206-2-1,T,50,-1,R,2,249694,1750,251450,251659,251660,666,<right>,<right>,1,1
