subnum,stimtype,block,trialtype,trial,condition,stim,dim1,dim2,time0,resp1,rt1,corr1,resp2,rt2,corr2,tooslow
206-1-1,4,1,PRACTICE,-25,1,1,1,1,109727,1,781,1,NA,0,0,0
206-1-1,4,1,PRACTICE,-24,1,4,0,0,111695,2,618,1,NA,0,0,0
206-1-1,4,1,PRACTICE,-23,1,2,0,1,113425,2,510,1,NA,0,0,0
206-1-1,4,1,PRACTICE,-22,1,3,1,0,115011,1,408,1,NA,0,0,0
206-1-1,4,1,PRACTICE,-21,1,4,0,0,116383,2,434,1,NA,0,0,0
206-1-1,4,1,PRACTICE,-20,1,2,0,1,118009,2,444,1,NA,0,0,0
206-1-1,4,1,PRACTICE,-19,1,3,1,0,119314,1,414,1,NA,0,0,0
206-1-1,4,1,PRACTICE,-18,1,1,1,1,120718,1,397,1,NA,0,0,0
206-1-1,4,1,TEST,1,1,1,1,1,122010,1,420,1,NA,0,0,0
206-1-1,4,1,TEST,2,1,2,0,1,123319,2,398,1,NA,0,0,0
206-1-1,4,1,TEST,3,1,4,0,0,124977,2,409,1,NA,0,0,0
206-1-1,4,1,TEST,4,1,3,1,0,126366,1,371,1,NA,0,0,0
206-1-1,4,1,TEST,5,1,2,0,1,127673,2,430,1,NA,0,0,0
206-1-1,4,1,TEST,6,1,4,0,0,129169,2,411,1,NA,0,0,0
206-1-1,4,1,TEST,7,1,3,1,0,130824,1,344,1,NA,0,0,0
206-1-1,4,1,TEST,8,1,1,1,1,132239,1,380,1,NA,0,0,0
206-1-1,4,1,TEST,9,1,2,0,1,133841,2,390,1,NA,0,0,0
206-1-1,4,1,TEST,10,1,1,1,1,135220,1,382,1,NA,0,0,0
206-1-1,4,1,TEST,11,1,3,1,0,136507,1,448,1,NA,0,0,0
206-1-1,4,1,TEST,12,1,4,0,0,138054,2,364,1,NA,0,0,0
206-1-1,4,1,TEST,13,1,3,1,0,139599,1,333,1,NA,0,0,0
206-1-1,4,1,TEST,14,1,2,0,1,141181,2,294,1,NA,0,0,0
206-1-1,4,1,TEST,15,1,1,1,1,142480,1,370,1,NA,0,0,0
206-1-1,4,1,TEST,16,1,4,0,0,143780,2,343,1,NA,0,0,0
206-1-1,4,1,TEST,17,1,3,1,0,145058,1,352,1,NA,0,0,0
206-1-1,4,1,TEST,18,1,2,0,1,146371,2,388,1,NA,0,0,0
206-1-1,4,1,TEST,19,1,4,0,0,147659,2,459,1,NA,0,0,0
206-1-1,4,1,TEST,20,1,1,1,1,149206,1,329,1,NA,0,0,0
206-1-1,4,1,TEST,21,1,2,0,1,150657,2,491,1,NA,0,0,0
206-1-1,4,1,TEST,22,1,4,0,0,152309,2,398,1,NA,0,0,0
206-1-1,4,1,TEST,23,1,3,1,0,153732,1,396,1,NA,0,0,0
206-1-1,4,1,TEST,24,1,1,1,1,155100,1,397,1,NA,0,0,0
206-1-1,4,1,TEST,25,1,2,0,1,156479,2,379,1,NA,0,0,0
206-1-1,4,2,PRACTICE,-25,2,2,0,1,165973,NA,0,0,9,440,1,0
206-1-1,4,2,PRACTICE,-24,2,4,0,0,167667,NA,0,0,0,363,1,0
206-1-1,4,2,PRACTICE,-23,2,3,1,0,168967,NA,0,0,0,426,1,0
206-1-1,4,2,PRACTICE,-22,2,1,1,1,170685,NA,0,0,9,352,1,0
206-1-1,4,2,PRACTICE,-21,2,3,1,0,172323,NA,0,0,0,335,1,0
206-1-1,4,2,PRACTICE,-20,2,1,1,1,173695,NA,0,0,9,344,1,0
206-1-1,4,2,PRACTICE,-19,2,4,0,0,175201,NA,0,0,0,351,1,0
206-1-1,4,2,PRACTICE,-18,2,2,0,1,176756,NA,0,0,9,380,1,0
206-1-1,4,2,TEST,1,2,2,0,1,178057,NA,0,0,9,389,1,0
206-1-1,4,2,TEST,2,2,3,1,0,179686,NA,0,0,0,331,1,0
206-1-1,4,2,TEST,3,2,1,1,1,181095,NA,0,0,9,374,1,0
206-1-1,4,2,TEST,4,2,4,0,0,182786,NA,0,0,0,354,1,0
206-1-1,4,2,TEST,5,2,3,1,0,184285,NA,0,0,0,374,1,0
206-1-1,4,2,TEST,6,2,1,1,1,185541,NA,0,0,9,441,1,0
206-1-1,4,2,TEST,7,2,2,0,1,187287,NA,0,0,9,358,1,0
206-1-1,4,2,TEST,8,2,4,0,0,188720,NA,0,0,0,370,1,0
206-1-1,4,2,TEST,9,2,1,1,1,190179,NA,0,0,9,378,1,0
206-1-1,4,2,TEST,10,2,4,0,0,191452,NA,0,0,0,368,1,0
206-1-1,4,2,TEST,11,2,3,1,0,193053,NA,0,0,0,386,1,0
206-1-1,4,2,TEST,12,2,2,0,1,194273,NA,0,0,9,391,1,0
206-1-1,4,2,TEST,13,2,4,0,0,195915,NA,0,0,0,332,1,0
206-1-1,4,2,TEST,14,2,3,1,0,197079,NA,0,0,0,404,1,0
206-1-1,4,2,TEST,15,2,2,0,1,198333,NA,0,0,9,422,1,0
206-1-1,4,2,TEST,16,2,1,1,1,199829,NA,0,0,9,406,1,0
206-1-1,4,2,TEST,17,2,4,0,0,201427,NA,0,0,0,354,1,0
206-1-1,4,2,TEST,18,2,3,1,0,202619,NA,0,0,0,410,1,0
206-1-1,4,2,TEST,19,2,2,0,1,204019,NA,0,0,9,348,1,0
206-1-1,4,2,TEST,20,2,1,1,1,205488,NA,0,0,9,403,1,0
206-1-1,4,2,TEST,21,2,3,1,0,206988,NA,0,0,0,354,1,0
206-1-1,4,2,TEST,22,2,4,0,0,208339,NA,0,0,0,422,1,0
206-1-1,4,2,TEST,23,2,2,0,1,210019,NA,0,0,9,348,1,0
206-1-1,4,2,TEST,24,2,1,1,1,211395,NA,0,0,9,438,1,0
206-1-1,4,2,TEST,25,2,4,0,0,212896,NA,0,0,0,394,1,0
206-1-1,4,3,PRACTICE,-25,3,1,1,1,236792,1,756,1,9,866,1,0
206-1-1,4,3,PRACTICE,-24,3,4,0,0,238509,2,605,1,0,701,1,0
206-1-1,4,3,PRACTICE,-23,3,3,1,0,240298,1,603,1,0,709,1,0
206-1-1,4,3,PRACTICE,-22,3,2,0,1,242236,2,556,1,9,651,1,0
206-1-1,4,3,PRACTICE,-21,3,2,0,1,244065,2,584,1,9,690,1,0
206-1-1,4,3,PRACTICE,-20,3,3,1,0,245869,1,510,1,0,590,1,0
206-1-1,4,3,PRACTICE,-19,3,1,1,1,247501,1,588,1,9,666,1,0
206-1-1,4,3,PRACTICE,-18,3,4,0,0,249197,2,486,1,0,582,1,0
206-1-1,4,3,TEST,1,3,3,1,0,250791,1,1030,1,0,1129,1,0
206-1-1,4,3,TEST,2,3,2,0,1,253094,2,582,1,9,690,1,0
206-1-1,4,3,TEST,3,3,4,0,0,255031,2,770,1,0,858,1,0
206-1-1,4,3,TEST,4,3,1,1,1,256930,1,466,1,9,578,1,0
206-1-1,4,3,TEST,5,3,3,1,0,258381,1,1164,1,0,1252,1,0
206-1-1,4,3,TEST,6,3,2,0,1,260848,2,560,1,9,664,1,0
206-1-1,4,3,TEST,7,3,4,0,0,262505,2,645,1,0,746,1,0
206-1-1,4,3,TEST,8,3,1,1,1,264267,1,536,1,9,657,1,0
206-1-1,4,3,TEST,9,3,4,0,0,266241,2,414,1,0,502,1,0
206-1-1,4,3,TEST,10,3,2,0,1,267976,2,747,1,9,849,1,0
206-1-1,4,3,TEST,11,3,3,1,0,269871,1,464,1,0,542,1,0
206-1-1,4,3,TEST,12,3,1,1,1,271607,1,479,1,9,558,1,0
206-1-1,4,3,TEST,13,3,3,1,0,273453,1,668,1,0,757,1,0
206-1-1,4,3,TEST,14,3,1,1,1,275441,1,442,1,9,520,1,0
206-1-1,4,3,TEST,15,3,2,0,1,277015,2,504,1,9,594,1,0
206-1-1,4,3,TEST,16,3,4,0,0,278526,2,634,1,0,714,1,0
206-1-1,4,3,TEST,17,3,2,0,1,280444,2,547,1,9,643,1,0
206-1-1,4,3,TEST,18,3,3,1,0,281935,1,455,1,0,533,1,0
206-1-1,4,3,TEST,19,3,1,1,1,283719,1,428,1,9,504,1,0
206-1-1,4,3,TEST,20,3,4,0,0,285468,2,412,1,0,495,1,0
206-1-1,4,3,TEST,21,3,1,1,1,287210,1,374,1,9,472,1,0
206-1-1,4,3,TEST,22,3,2,0,1,288898,2,474,1,9,570,1,0
206-1-1,4,3,TEST,23,3,3,1,0,290404,1,456,1,0,519,1,0
206-1-1,4,3,TEST,24,3,4,0,0,291884,2,467,1,0,555,1,0
206-1-1,4,3,TEST,25,3,1,1,1,293315,1,454,1,9,551,1,0
