subnum,block,trial,direction,stim,offset,fixationstart,delaytime,promptstart,arrowstart,maskstart,rt,corresp,resp,corr,bivalentcorr
103-2-1,P,0,1,L,1,16171,2750,18926,19431,19432,830,<left>,<left>,1,1
103-2-1,P,0,1,L,2,20274,1750,22030,22536,22537,727,<left>,<left>,1,1
103-2-1,P,0,-1,R,2,23277,2750,26032,26540,26541,808,<right>,<right>,1,1
103-2-1,P,0,1,L,2,27363,1750,29118,29624,29625,619,<left>,<left>,1,1
103-2-1,P,0,1,R,2,30258,1750,32012,32519,32519,608,<right>,<right>,1,1
103-2-1,P,0,1,L,1,33147,2000,35153,35659,35659,731,<left>,<left>,1,1
103-2-1,P,0,-1,L,1,36410,2250,38665,39170,39171,587,<left>,<left>,1,1
103-2-1,P,0,-1,R,2,39782,2250,42037,42544,42544,707,<right>,<right>,1,1
103-2-1,P,0,1,U,2,48946,3000,51951,52156,52156,852,<up>,<up>,1,1
103-2-1,P,0,1,D,2,53018,2000,55024,55229,55230,779,<down>,<down>,1,1
103-2-1,P,0,-1,U,1,56028,3000,59033,59239,59240,562,<up>,<up>,1,1
103-2-1,P,0,1,D,2,59819,2500,62325,62531,62532,734,<down>,<down>,1,1
103-2-1,P,0,1,D,2,63291,3250,66548,66755,66755,647,<down>,<down>,1,1
103-2-1,P,0,-1,L,1,67413,2750,70167,70372,70373,493,<left>,<left>,1,1
103-2-1,P,0,-1,U,2,70890,1500,72395,72600,72601,873,<up>,<up>,1,1
103-2-1,P,0,1,L,2,73489,2000,75493,75698,75699,756,<left>,<left>,1,1
103-2-1,T,1,1,D,2,79420,1500,80925,81131,81131,768,<down>,<down>,1,1
103-2-1,T,2,-1,R,1,81913,2750,84668,84874,84874,739,<right>,<right>,1,1
103-2-1,T,3,-1,D,1,85629,2250,87883,88088,88089,730,<down>,<down>,1,1
103-2-1,T,4,1,R,1,88835,2750,91591,91798,91798,825,<right>,<right>,1,1
103-2-1,T,5,-1,U,2,92637,2750,95392,95598,95598,795,<up>,<up>,1,1
103-2-1,T,6,1,D,1,96409,1750,98164,98371,98371,730,<down>,<down>,1,1
103-2-1,T,7,-1,U,1,99114,1500,100620,100827,100827,643,<up>,<up>,1,1
103-2-1,T,8,-1,D,1,101484,3000,104491,104697,104698,740,<down>,<down>,1,1
103-2-1,T,9,-1,U,2,105452,2500,107957,108162,108163,590,<up>,<up>,1,1
103-2-1,T,10,1,L,1,108768,3500,112273,112478,112479,649,<left>,<left>,1,1
103-2-1,T,11,1,R,1,113143,3000,116149,116354,116354,648,<right>,<right>,1,1
103-2-1,T,12,1,R,2,117017,3500,120523,120730,120730,693,<right>,<right>,1,1
103-2-1,T,13,-1,U,1,121438,3500,124944,125150,125150,610,<up>,<up>,1,1
103-2-1,T,14,-1,D,1,125778,2000,127782,127989,127990,856,<down>,<down>,1,1
103-2-1,T,15,-1,D,2,128860,2250,131116,131323,131323,805,<down>,<down>,1,1
103-2-1,T,16,1,L,1,132141,3500,135647,135852,135853,657,<left>,<left>,1,1
103-2-1,T,17,1,L,1,136522,3000,139527,139734,139734,522,<left>,<left>,1,1
103-2-1,T,18,1,U,1,140268,2750,143023,143229,143230,600,<up>,<up>,1,1
103-2-1,T,19,1,R,2,143844,3500,147349,147556,147556,561,<right>,<right>,1,1
103-2-1,T,20,1,D,1,148135,3250,151390,151596,151597,823,<down>,<down>,1,1
103-2-1,T,21,-1,D,2,152434,1500,153939,154144,154144,838,<down>,<down>,1,1
103-2-1,T,22,-1,D,1,154996,3000,158002,158207,158208,657,<down>,<down>,1,1
103-2-1,T,23,1,U,1,158878,2500,161384,161591,161591,527,<up>,<up>,1,1
103-2-1,T,24,1,L,2,162137,1750,163893,164100,164100,682,<left>,<left>,1,1
103-2-1,T,25,-1,L,2,164797,1500,166303,166508,166509,593,<left>,<left>,1,1
103-2-1,T,26,-1,U,1,167115,1750,168870,169077,169077,674,<up>,<up>,1,1
103-2-1,T,27,-1,L,1,169764,3250,173019,173224,173225,553,<left>,<left>,1,1
103-2-1,T,28,1,D,2,173792,2500,176297,176502,176502,823,<down>,<down>,1,1
103-2-1,T,29,1,L,2,177339,3250,180595,180802,180802,648,<left>,<left>,1,1
103-2-1,T,30,1,R,2,181465,1750,183220,183427,183427,705,<right>,<right>,1,1
103-2-1,T,31,1,L,2,184147,2000,186152,186358,186359,686,<left>,<left>,1,1
103-2-1,T,32,1,R,1,187059,1750,188814,189021,189022,574,<right>,<right>,1,1
103-2-1,T,33,-1,L,2,189609,2500,192113,192320,192320,587,<left>,<left>,1,1
103-2-1,T,34,-1,L,1,192921,1500,194426,194631,194632,472,<left>,<left>,1,1
103-2-1,T,35,-1,D,2,195121,3250,198376,198584,198584,905,<down>,<down>,1,1
103-2-1,T,36,-1,L,2,199503,1750,201258,201463,201464,599,<left>,<left>,1,1
103-2-1,T,37,1,R,2,202077,3500,205583,205790,205790,594,<right>,<right>,1,1
103-2-1,T,38,-1,L,1,206402,2750,209157,209363,209364,517,<left>,<left>,1,1
103-2-1,T,39,1,L,1,209897,1500,211402,211607,211608,501,<left>,<left>,1,1
103-2-1,T,40,-1,L,1,212125,2250,214379,214586,214587,452,<left>,<left>,1,1
103-2-1,T,41,-1,R,1,215054,2750,217810,218016,218017,771,<right>,<right>,1,1
103-2-1,T,42,1,L,1,218803,1500,220308,220513,220514,556,<left>,<left>,1,1
103-2-1,T,43,-1,R,2,221085,3000,224090,224296,224297,728,<right>,<right>,1,1
103-2-1,T,44,1,U,2,225036,2250,227291,227497,227497,670,<up>,<up>,1,1
103-2-1,T,45,1,U,2,228181,2500,230685,230892,230892,581,<up>,<up>,1,1
103-2-1,T,46,1,D,1,231489,3500,234994,235201,235202,887,<down>,<down>,1,1
103-2-1,T,47,-1,R,2,236102,3500,239608,239814,239815,640,<right>,<right>,1,1
103-2-1,T,48,1,R,1,240467,1500,241972,242178,242179,804,<right>,<right>,1,1
103-2-1,T,49,-1,R,1,242999,3250,246255,246461,246462,716,<right>,<right>,1,1
103-2-1,T,50,-1,U,2,247192,1750,248948,249155,249155,908,<up>,<up>,1,1
