subnum,block,trial,direction,stim,offset,fixationstart,delaytime,promptstart,arrowstart,maskstart,rt,corresp,resp,corr,bivalentcorr
113-3-2,P,0,-1,L,2,6195,3250,9451,9956,9957,492,<left>,<left>,1,1
113-3-2,P,0,1,U,1,10476,2000,12481,12987,12988,486,<up>,<up>,1,1
113-3-2,P,0,-1,D,2,13494,2500,16000,16506,16507,680,<down>,<down>,1,1
113-3-2,P,0,-1,D,2,17212,3500,20717,21224,21225,540,<down>,<down>,1,1
113-3-2,P,0,-1,R,2,21790,2250,24046,24553,24553,556,<right>,<right>,1,1
113-3-2,P,0,1,L,2,25126,3500,28631,29136,29137,489,<left>,<left>,1,1
113-3-2,P,0,1,R,1,29650,2500,32156,32662,32663,634,<right>,<right>,1,1
113-3-2,P,0,1,R,1,33317,3250,36572,37079,37080,482,<right>,<right>,1,1
113-3-2,P,0,1,D,1,39077,2500,41582,41789,41789,454,<down>,<down>,1,1
113-3-2,P,0,-1,U,1,42257,2500,44762,44969,44969,518,<up>,<up>,1,1
113-3-2,P,0,-1,L,2,45504,2250,47759,47964,47965,683,<left>,<left>,1,1
113-3-2,P,0,1,D,2,48660,3250,51916,52122,52123,466,<down>,<down>,1,1
113-3-2,P,0,-1,D,2,52605,2750,55361,55568,55568,502,<down>,<down>,1,1
113-3-2,P,0,-1,L,1,56094,3250,59349,59556,59556,448,<left>,<left>,1,1
113-3-2,P,0,-1,U,1,60020,3250,63275,63482,63482,488,<up>,<up>,1,1
113-3-2,P,0,-1,D,2,63983,1750,65738,65943,65944,670,<down>,<down>,1,1
113-3-2,T,1,-1,R,2,75209,1750,76964,77171,77171,596,<right>,<right>,1,1
113-3-2,T,2,-1,R,2,77784,3000,80790,80997,80997,563,<right>,<right>,1,1
113-3-2,T,3,1,L,1,81575,2500,84080,84287,84287,503,<left>,<left>,1,1
113-3-2,T,4,-1,R,2,84803,1750,86559,86766,86766,606,<right>,<right>,1,1
113-3-2,T,5,-1,D,1,87390,3000,90395,90601,90601,532,<down>,<down>,1,1
113-3-2,T,6,1,L,2,91149,3500,94653,94858,94859,609,<left>,<left>,1,1
113-3-2,T,7,-1,R,1,95481,2500,97986,98191,98192,595,<right>,<right>,1,1
113-3-2,T,8,-1,D,1,98807,3000,101812,102019,102020,490,<down>,<down>,1,1
113-3-2,T,9,1,R,1,102524,1750,104279,104486,104486,720,<right>,<right>,1,1
113-3-2,T,10,-1,R,1,105223,3000,108228,108434,108435,563,<right>,<right>,1,1
113-3-2,T,11,1,U,1,109015,2750,111770,111977,111977,483,<up>,<up>,1,1
113-3-2,T,12,-1,R,2,112475,3250,115730,115935,115936,517,<right>,<right>,1,1
113-3-2,T,13,1,L,1,116473,1500,117978,118185,118185,491,<left>,<left>,1,1
113-3-2,T,14,1,R,2,118694,2000,120698,120903,120904,563,<right>,<right>,1,1
113-3-2,T,15,-1,L,2,121490,3000,124496,124703,124703,607,<left>,<left>,1,1
113-3-2,T,16,-1,U,2,125321,2750,128077,128284,128284,536,<up>,<up>,1,1
113-3-2,T,17,1,D,2,128846,2750,131600,131808,131808,604,<down>,<down>,1,1
113-3-2,T,18,-1,R,1,132426,1500,133932,134137,134138,496,<right>,<right>,1,1
113-3-2,T,19,1,R,2,134648,1750,136403,136610,136611,603,<right>,<right>,1,1
113-3-2,T,20,-1,U,1,137233,1750,138988,139195,139195,469,<up>,<up>,1,1
113-3-2,T,21,-1,U,2,139688,1500,141194,141399,141400,549,<up>,<up>,1,1
113-3-2,T,22,1,R,1,141968,1750,143723,143930,143930,531,<right>,<right>,1,1
113-3-2,T,23,1,L,2,144475,1750,146231,146438,146438,605,<left>,<left>,1,1
113-3-2,T,24,1,U,2,147059,3250,150314,150520,150520,525,<up>,<up>,1,1
113-3-2,T,25,1,U,1,151070,2750,153825,154030,154031,469,<up>,<up>,1,1
113-3-2,T,26,-1,D,2,154514,2500,157020,157227,157227,627,<down>,<down>,1,1
113-3-2,T,27,1,L,1,157874,3250,161129,161336,161337,495,<left>,<left>,1,1
113-3-2,T,28,1,U,1,161846,2750,164602,164808,164809,462,<up>,<up>,1,1
113-3-2,T,29,-1,R,1,165301,2500,167806,168013,168013,557,<right>,<right>,1,1
113-3-2,T,30,-1,U,2,168597,2000,170602,170807,170808,549,<up>,<up>,1,1
113-3-2,T,31,1,R,1,171376,2250,173632,173839,173839,527,<right>,<right>,1,1
113-3-2,T,32,-1,D,2,174385,3500,177890,178095,178096,648,<down>,<down>,1,1
113-3-2,T,33,1,L,2,178764,3250,182020,182225,182226,700,<left>,<left>,1,1
113-3-2,T,34,-1,R,2,182945,3250,186201,186408,186408,621,<right>,<right>,1,1
113-3-2,T,35,-1,R,2,187043,2500,189548,189754,189755,646,<right>,<right>,1,1
113-3-2,T,36,-1,U,1,190421,3000,193428,193635,193636,587,<up>,<up>,1,1
113-3-2,T,37,-1,U,1,194237,3000,197243,197449,197449,569,<up>,<up>,1,1
113-3-2,T,38,1,D,1,198031,2000,200036,200241,200242,578,<down>,<down>,1,1
113-3-2,T,39,1,D,2,200841,2500,203347,203552,203553,560,<down>,<down>,1,1
113-3-2,T,40,-1,D,2,204126,2500,206630,206835,206836,608,<down>,<down>,1,1
113-3-2,T,41,-1,R,2,207470,3000,210475,210680,210681,594,<right>,<right>,1,1
113-3-2,T,42,-1,D,2,211295,2000,213301,213508,213508,567,<down>,<down>,1,1
113-3-2,T,43,-1,L,1,214093,2250,216348,216555,216555,499,<left>,<left>,1,1
113-3-2,T,44,-1,R,2,217073,1750,218828,219034,219034,616,<right>,<right>,1,1
113-3-2,T,45,-1,L,2,219661,3500,223165,223370,223371,559,<left>,<left>,1,1
113-3-2,T,46,1,L,2,223949,2500,226454,226661,226662,601,<left>,<left>,1,1
113-3-2,T,47,-1,U,2,227277,3500,230782,230989,230989,627,<up>,<up>,1,1
113-3-2,T,48,1,D,1,231641,2500,234146,234353,234354,464,<down>,<down>,1,1
113-3-2,T,49,1,R,2,234833,2250,237087,237295,237295,611,<right>,<right>,1,1
113-3-2,T,50,1,D,1,237920,2750,240675,240881,240882,440,<down>,<down>,1,1
