subnum,stimtype,block,trialtype,trial,condition,stim,dim1,dim2,time0,resp1,rt1,corr1,resp2,rt2,corr2,tooslow
112-3-4,4,1,PRACTICE,-25,1,2,0,1,11292,2,383,1,NA,0,0,0
112-3-4,4,1,PRACTICE,-24,1,1,1,1,12915,1,402,1,NA,0,0,0
112-3-4,4,1,PRACTICE,-23,1,3,1,0,14331,1,354,1,NA,0,0,0
112-3-4,4,1,PRACTICE,-22,1,4,0,0,15819,2,367,1,NA,0,0,0
112-3-4,4,1,PRACTICE,-21,1,2,0,1,17159,2,398,1,NA,0,0,0
112-3-4,4,1,PRACTICE,-20,1,4,0,0,18640,2,336,1,NA,0,0,0
112-3-4,4,1,PRACTICE,-19,1,3,1,0,19911,1,362,1,NA,0,0,0
112-3-4,4,1,PRACTICE,-18,1,1,1,1,21599,1,354,1,NA,0,0,0
112-3-4,4,1,TEST,1,1,3,1,0,23037,1,387,1,NA,0,0,0
112-3-4,4,1,TEST,2,1,4,0,0,24377,2,370,1,NA,0,0,0
112-3-4,4,1,TEST,3,1,1,1,1,25633,1,488,1,NA,0,0,0
112-3-4,4,1,TEST,4,1,2,0,1,27037,2,357,1,NA,0,0,0
112-3-4,4,1,TEST,5,1,1,1,1,28679,1,323,1,NA,0,0,0
112-3-4,4,1,TEST,6,1,3,1,0,30154,1,357,1,NA,0,0,0
112-3-4,4,1,TEST,7,1,4,0,0,31355,2,356,1,NA,0,0,0
112-3-4,4,1,TEST,8,1,2,0,1,32624,2,365,1,NA,0,0,0
112-3-4,4,1,TEST,9,1,3,1,0,33871,1,454,1,NA,0,0,0
112-3-4,4,1,TEST,10,1,1,1,1,35202,1,322,1,NA,0,0,0
112-3-4,4,1,TEST,11,1,4,0,0,36701,2,262,1,NA,0,0,0
112-3-4,4,1,TEST,12,1,2,0,1,38232,2,388,1,NA,0,0,0
112-3-4,4,1,TEST,13,1,4,0,0,39812,2,476,1,NA,0,0,0
112-3-4,4,1,TEST,14,1,1,1,1,41319,1,320,1,NA,0,0,0
112-3-4,4,1,TEST,15,1,3,1,0,42473,1,357,1,NA,0,0,0
112-3-4,4,1,TEST,16,1,2,0,1,44138,2,294,1,NA,0,0,0
112-3-4,4,1,TEST,17,1,3,1,0,45358,1,321,1,NA,0,0,0
112-3-4,4,1,TEST,18,1,4,0,0,46814,2,278,1,NA,0,0,0
112-3-4,4,1,TEST,19,1,1,1,1,48142,1,340,1,NA,0,0,0
112-3-4,4,1,TEST,20,1,2,0,1,49707,2,351,1,NA,0,0,0
112-3-4,4,1,TEST,21,1,4,0,0,51124,1,283,0,NA,0,0,0
112-3-4,4,1,TEST,22,1,3,1,0,53170,1,334,1,NA,0,0,0
112-3-4,4,1,TEST,23,1,1,1,1,54791,1,338,1,NA,0,0,0
112-3-4,4,1,TEST,24,1,2,0,1,56416,2,336,1,NA,0,0,0
112-3-4,4,1,TEST,25,1,3,1,0,57850,1,372,1,NA,0,0,0
112-3-4,4,2,PRACTICE,-25,2,2,0,1,62626,NA,0,0,0,373,0,0
112-3-4,4,2,PRACTICE,-24,2,1,1,1,64555,NA,0,0,9,414,1,0
112-3-4,4,2,PRACTICE,-23,2,3,1,0,65951,NA,0,0,0,334,1,0
112-3-4,4,2,PRACTICE,-22,2,4,0,0,67529,NA,0,0,0,364,1,0
112-3-4,4,2,PRACTICE,-21,2,1,1,1,69093,NA,0,0,9,335,1,0
112-3-4,4,2,PRACTICE,-20,2,3,1,0,70667,NA,0,0,0,342,1,0
112-3-4,4,2,PRACTICE,-19,2,4,0,0,72276,NA,0,0,0,307,1,0
112-3-4,4,2,PRACTICE,-18,2,2,0,1,73479,NA,0,0,9,365,1,0
112-3-4,4,2,TEST,1,2,1,1,1,74984,NA,0,0,9,309,1,0
112-3-4,4,2,TEST,2,2,2,0,1,76237,NA,0,0,9,333,1,0
112-3-4,4,2,TEST,3,2,3,1,0,77465,NA,0,0,9,330,0,0
112-3-4,4,2,TEST,4,2,4,0,0,79547,NA,0,0,0,353,1,0
112-3-4,4,2,TEST,5,2,1,1,1,80850,NA,0,0,9,366,1,0
112-3-4,4,2,TEST,6,2,4,0,0,82435,NA,0,0,0,315,1,0
112-3-4,4,2,TEST,7,2,3,1,0,83847,NA,0,0,0,333,1,0
112-3-4,4,2,TEST,8,2,2,0,1,85009,NA,0,0,9,372,1,0
112-3-4,4,2,TEST,9,2,3,1,0,86589,NA,0,0,0,327,1,0
112-3-4,4,2,TEST,10,2,2,0,1,87979,NA,0,0,9,333,1,0
112-3-4,4,2,TEST,11,2,1,1,1,89636,NA,0,0,9,387,1,0
112-3-4,4,2,TEST,12,2,4,0,0,90972,NA,0,0,0,321,1,0
112-3-4,4,2,TEST,13,2,3,1,0,92247,NA,0,0,0,342,1,0
112-3-4,4,2,TEST,14,2,1,1,1,93803,NA,0,0,9,454,1,0
112-3-4,4,2,TEST,15,2,4,0,0,95355,NA,0,0,0,251,1,0
112-3-4,4,2,TEST,16,2,2,0,1,96880,NA,0,0,9,311,1,0
112-3-4,4,2,TEST,17,2,4,0,0,98210,NA,0,0,0,272,1,0
112-3-4,4,2,TEST,18,2,3,1,0,99411,NA,0,0,0,299,1,0
112-3-4,4,2,TEST,19,2,1,1,1,100829,NA,0,0,9,310,1,0
112-3-4,4,2,TEST,20,2,2,0,1,102149,NA,0,0,0,237,0,0
112-3-4,4,2,TEST,21,2,3,1,0,103925,NA,0,0,0,290,1,0
112-3-4,4,2,TEST,22,2,2,0,1,105506,NA,0,0,9,289,1,0
112-3-4,4,2,TEST,23,2,1,1,1,106730,NA,0,0,9,318,1,0
112-3-4,4,2,TEST,24,2,4,0,0,107902,NA,0,0,0,294,1,0
112-3-4,4,2,TEST,25,2,2,0,1,109373,NA,0,0,9,304,1,0
112-3-4,4,3,PRACTICE,-25,3,3,1,0,121376,1,371,1,0,375,1,0
112-3-4,4,3,PRACTICE,-24,3,1,1,1,122626,1,364,1,9,370,1,0
112-3-4,4,3,PRACTICE,-23,3,4,0,0,124300,2,348,1,0,352,1,0
112-3-4,4,3,PRACTICE,-22,3,2,0,1,125548,1,324,0,9,332,1,0
112-3-4,4,3,PRACTICE,-21,3,3,1,0,127453,1,364,1,0,370,1,0
112-3-4,4,3,PRACTICE,-20,3,4,0,0,128930,2,380,1,9,385,0,0
112-3-4,4,3,PRACTICE,-19,3,1,1,1,131095,1,388,1,9,392,1,0
112-3-4,4,3,PRACTICE,-18,3,2,0,1,132731,2,444,1,9,424,1,0
112-3-4,4,3,TEST,1,3,4,0,0,134407,2,400,1,0,404,1,0
112-3-4,4,3,TEST,2,3,3,1,0,135678,1,335,1,0,339,1,0
112-3-4,4,3,TEST,3,3,2,0,1,137269,2,524,1,9,520,1,0
112-3-4,4,3,TEST,4,3,1,1,1,139120,1,423,1,9,419,1,0
112-3-4,4,3,TEST,5,3,2,0,1,140472,2,391,1,9,395,1,0
112-3-4,4,3,TEST,6,3,3,1,0,141731,1,362,1,0,366,1,0
112-3-4,4,3,TEST,7,3,1,1,1,142980,1,369,1,9,366,1,0
112-3-4,4,3,TEST,8,3,4,0,0,144239,2,405,1,0,395,1,0
112-3-4,4,3,TEST,9,3,3,1,0,145940,1,413,1,0,417,1,0
112-3-4,4,3,TEST,10,3,2,0,1,147570,2,432,1,9,426,1,0
112-3-4,4,3,TEST,11,3,4,0,0,149054,2,356,1,0,374,1,0
112-3-4,4,3,TEST,12,3,1,1,1,150413,1,380,1,9,384,1,0
112-3-4,4,3,TEST,13,3,2,0,1,151821,2,397,1,9,393,1,0
112-3-4,4,3,TEST,14,3,4,0,0,153364,2,377,1,0,391,1,0
112-3-4,4,3,TEST,15,3,3,1,0,154700,1,343,1,0,349,1,0
112-3-4,4,3,TEST,16,3,1,1,1,156133,1,394,1,9,399,1,0
112-3-4,4,3,TEST,17,3,4,0,0,157763,2,426,1,0,430,1,0
112-3-4,4,3,TEST,18,3,1,1,1,159104,1,399,1,9,403,1,0
112-3-4,4,3,TEST,19,3,3,1,0,160746,1,425,1,0,435,1,0
112-3-4,4,3,TEST,20,3,2,0,1,162393,2,419,1,9,416,1,0
112-3-4,4,3,TEST,21,3,4,0,0,163740,2,454,1,0,458,1,0
112-3-4,4,3,TEST,22,3,3,1,0,165198,1,346,1,9,342,0,0
112-3-4,4,3,TEST,23,3,1,1,1,167192,1,405,1,9,400,1,0
112-3-4,4,3,TEST,24,3,2,0,1,168491,1,350,0,0,353,0,0
112-3-4,4,3,TEST,25,3,3,1,0,170327,1,426,1,0,434,1,0
