subnum,block,trial,direction,stim,offset,fixationstart,delaytime,promptstart,arrowstart,maskstart,rt,corresp,resp,corr,bivalentcorr
207-3-4,P,0,-1,U,1,4655,2000,6660,7166,7166,466,<up>,<up>,1,1
207-3-4,P,0,-1,L,1,7659,1500,9164,9670,9670,501,<left>,<left>,1,1
207-3-4,P,0,1,U,1,10193,2500,12698,13204,13205,482,<up>,<up>,1,1
207-3-4,P,0,1,U,1,13709,2750,16465,16972,16972,470,<up>,<up>,1,1
207-3-4,P,0,-1,D,2,17466,2500,19970,20475,20475,610,<down>,<down>,1,1
207-3-4,P,0,-1,L,2,21098,1500,22605,23111,23112,568,<left>,<left>,1,1
207-3-4,P,0,-1,R,2,23706,3000,26712,27218,27219,536,<right>,<right>,1,1
207-3-4,P,0,-1,R,1,27773,3500,31279,31786,31786,719,<right>,<right>,1,1
207-3-4,P,0,-1,L,1,34468,2750,37224,37431,37432,598,<left>,<left>,1,1
207-3-4,P,0,-1,U,1,38041,3500,41546,41753,41753,525,<up>,<up>,1,1
207-3-4,P,0,1,D,1,42291,3250,45546,45751,45752,587,<down>,<down>,1,1
207-3-4,P,0,1,R,1,46352,1750,48107,48314,48315,518,<right>,<right>,1,1
207-3-4,P,0,-1,R,2,48848,3000,51853,52060,52060,606,<right>,<right>,1,1
207-3-4,P,0,-1,L,1,52676,2750,55430,55635,55636,616,<left>,<left>,1,1
207-3-4,P,0,1,D,2,56263,3500,59769,59976,59976,703,<down>,<down>,1,1
207-3-4,P,0,1,U,2,60688,2750,63442,63647,63648,556,<up>,<up>,1,1
207-3-4,T,1,1,D,2,65861,2000,67865,68070,68070,624,<down>,<down>,1,1
207-3-4,T,2,-1,U,2,68705,2500,71209,71414,71415,1143,<up>,<down>,0,1
207-3-4,T,3,1,R,1,72569,2500,75075,75282,75282,546,<right>,<right>,1,1
207-3-4,T,4,1,L,1,75840,2750,78596,78802,78802,616,<left>,<left>,1,1
207-3-4,T,5,1,U,1,79428,1500,80932,81137,81138,525,<up>,<up>,1,1
207-3-4,T,6,1,U,1,81674,2750,84428,84635,84635,489,<up>,<up>,1,1
207-3-4,T,7,1,D,2,85142,1750,86896,87103,87103,562,<down>,<down>,1,1
207-3-4,T,8,-1,R,2,87684,3500,91190,91397,91397,910,<right>,<right>,1,1
207-3-4,T,9,1,R,2,92320,3250,95574,95779,95780,580,<right>,<right>,1,1
207-3-4,T,10,1,D,1,96373,2500,98878,99085,99085,565,<down>,<down>,1,1
207-3-4,T,11,1,U,2,99662,3000,102668,102875,102875,598,<up>,<up>,1,1
207-3-4,T,12,1,R,1,103485,2250,105741,105948,105948,522,<right>,<right>,1,1
207-3-4,T,13,1,D,2,106484,2500,108988,109193,109194,613,<down>,<down>,1,1
207-3-4,T,14,1,R,1,109816,1750,111571,111778,111778,613,<right>,<right>,1,1
207-3-4,T,15,-1,U,2,112403,3500,115908,116115,116115,643,<up>,<up>,1,1
207-3-4,T,16,1,D,1,116769,3000,119774,119981,119981,638,<down>,<down>,1,1
207-3-4,T,17,1,U,1,120631,3000,123636,123842,123842,505,<up>,<up>,1,1
207-3-4,T,18,1,R,1,124358,1750,126113,126319,126320,474,<right>,<right>,1,1
207-3-4,T,19,-1,U,1,126804,2250,129059,129265,129266,559,<up>,<up>,1,1
207-3-4,T,20,-1,R,2,129838,1500,131342,131547,131548,658,<right>,<right>,1,1
207-3-4,T,21,1,R,2,132219,2750,134973,135180,135181,601,<right>,<right>,1,1
207-3-4,T,22,1,U,1,135794,2000,137798,138003,138004,659,<up>,<up>,1,1
207-3-4,T,23,1,R,1,138675,2500,141181,141388,141388,540,<right>,<right>,1,1
207-3-4,T,24,-1,U,2,141940,1500,143444,143650,143650,547,<up>,<up>,1,1
207-3-4,T,25,-1,U,1,144207,3250,147462,147669,147669,571,<up>,<up>,1,1
207-3-4,T,26,-1,R,1,148252,2250,150506,150712,150713,546,<right>,<right>,1,1
207-3-4,T,27,-1,R,2,151278,1500,152782,152987,152988,608,<right>,<left>,0,1
207-3-4,T,28,-1,R,1,153607,1750,155361,155568,155569,477,<right>,<right>,1,1
207-3-4,T,29,1,D,1,156060,2500,158565,158770,158771,555,<down>,<down>,1,1
207-3-4,T,30,-1,D,2,159338,2250,161592,161798,161798,640,<down>,<down>,1,1
207-3-4,T,31,1,R,1,162450,2250,164705,164911,164912,855,<right>,<left>,0,1
207-3-4,T,32,1,L,1,165780,3250,169036,169242,169243,588,<left>,<left>,1,1
207-3-4,T,33,-1,R,1,169845,3000,172850,173055,173056,652,<right>,<right>,1,1
207-3-4,T,34,1,R,2,173719,3500,177223,177428,177429,624,<right>,<right>,1,1
207-3-4,T,35,1,L,2,178064,2000,180068,180273,180274,489,<left>,<left>,1,1
207-3-4,T,36,1,U,2,180776,2000,182780,182985,182985,686,<up>,<up>,1,1
207-3-4,T,37,-1,R,1,183682,3500,187187,187393,187394,641,<right>,<right>,1,1
207-3-4,T,38,-1,R,1,188052,2500,190556,190763,190763,599,<right>,<right>,1,1
207-3-4,T,39,1,R,1,191370,3250,194626,194832,194833,439,<right>,<right>,1,1
207-3-4,T,40,1,U,2,195292,2500,197798,198005,198005,585,<up>,<up>,1,1
207-3-4,T,41,-1,R,2,198607,3000,201613,201820,201820,566,<right>,<right>,1,1
207-3-4,T,42,1,L,2,202400,2250,204654,204859,204860,662,<left>,<left>,1,1
207-3-4,T,43,-1,D,2,205536,3250,208792,208999,209000,682,<down>,<down>,1,1
207-3-4,T,44,1,R,2,209693,3500,213198,213403,213404,574,<right>,<right>,1,1
207-3-4,T,45,-1,D,1,213989,1500,215494,215701,215701,658,<down>,<down>,1,1
207-3-4,T,46,-1,R,2,216373,3500,219878,220084,220085,585,<right>,<right>,1,1
207-3-4,T,47,1,D,2,220683,2250,222939,223146,223146,778,<down>,<down>,1,1
207-3-4,T,48,1,L,1,223935,2750,226691,226898,226898,565,<left>,<left>,1,1
207-3-4,T,49,1,L,2,227474,1750,229229,229434,229435,1072,<left>,<left>,1,1
207-3-4,T,50,1,R,1,230520,2250,232775,232982,232982,580,<right>,<right>,1,1
