subnum,stimtype,block,trialtype,trial,condition,stim,dim1,dim2,time0,resp1,rt1,corr1,resp2,rt2,corr2,tooslow
205-1-2,4,1,PRACTICE,-25,1,3,1,0,10813,1,933,1,NA,0,0,0
205-1-2,4,1,PRACTICE,-24,1,1,1,1,12806,1,530,1,NA,0,0,0
205-1-2,4,1,PRACTICE,-23,1,4,0,0,14168,2,488,1,NA,0,0,0
205-1-2,4,1,PRACTICE,-22,1,2,0,1,15730,2,443,1,NA,0,0,0
205-1-2,4,1,PRACTICE,-21,1,3,1,0,17499,1,552,1,NA,0,0,0
205-1-2,4,1,PRACTICE,-20,1,4,0,0,18965,2,466,1,NA,0,0,0
205-1-2,4,1,PRACTICE,-19,1,1,1,1,20471,1,411,1,NA,0,0,0
205-1-2,4,1,PRACTICE,-18,1,2,0,1,21889,2,552,1,NA,0,0,0
205-1-2,4,1,TEST,1,1,3,1,0,23719,1,781,1,NA,0,0,0
205-1-2,4,1,TEST,2,1,1,1,1,25552,1,919,1,NA,0,0,0
205-1-2,4,1,TEST,3,1,2,0,1,27417,2,2328,1,NA,0,0,0
205-1-2,4,1,TEST,4,1,4,0,0,30801,2,467,1,NA,0,0,0
205-1-2,4,1,TEST,5,1,2,0,1,32540,2,450,1,NA,0,0,0
205-1-2,4,1,TEST,6,1,3,1,0,33826,1,740,1,NA,0,0,0
205-1-2,4,1,TEST,7,1,1,1,1,35728,1,982,1,NA,0,0,0
205-1-2,4,1,TEST,8,1,4,0,0,37642,2,582,1,NA,0,0,0
205-1-2,4,1,TEST,9,1,2,0,1,39489,2,2054,1,NA,0,0,0
205-1-2,4,1,TEST,10,1,3,1,0,42438,1,456,1,NA,0,0,0
205-1-2,4,1,TEST,11,1,4,0,0,44066,2,529,1,NA,0,0,0
205-1-2,4,1,TEST,12,1,1,1,1,45493,1,378,1,NA,0,0,0
205-1-2,4,1,TEST,13,1,4,0,0,46955,2,428,1,NA,0,0,0
205-1-2,4,1,TEST,14,1,1,1,1,48522,1,346,1,NA,0,0,0
205-1-2,4,1,TEST,15,1,3,1,0,50160,1,380,1,NA,0,0,0
205-1-2,4,1,TEST,16,1,2,0,1,51739,2,540,1,NA,0,0,0
205-1-2,4,1,TEST,17,1,4,0,0,53473,2,483,1,NA,0,0,0
205-1-2,4,1,TEST,18,1,2,0,1,54800,2,444,1,NA,0,0,0
205-1-2,4,1,TEST,19,1,1,1,1,56160,1,338,1,NA,0,0,0
205-1-2,4,1,TEST,20,1,3,1,0,57610,1,359,1,NA,0,0,0
205-1-2,4,1,TEST,21,1,1,1,1,59059,1,360,1,NA,0,0,0
205-1-2,4,1,TEST,22,1,3,1,0,60665,1,446,1,NA,0,0,0
205-1-2,4,1,TEST,23,1,2,0,1,62016,2,504,1,NA,0,0,0
205-1-2,4,1,TEST,24,1,4,0,0,63646,2,438,1,NA,0,0,0
205-1-2,4,1,TEST,25,1,2,0,1,64947,2,532,1,NA,0,0,0
205-1-2,4,2,PRACTICE,-25,2,2,0,1,76089,NA,0,0,0,634,0,0
205-1-2,4,2,PRACTICE,-24,2,1,1,1,78186,NA,0,0,9,462,1,0
205-1-2,4,2,PRACTICE,-23,2,4,0,0,79506,NA,0,0,0,461,1,0
205-1-2,4,2,PRACTICE,-22,2,3,1,0,81120,NA,0,0,0,480,1,0
205-1-2,4,2,PRACTICE,-21,2,1,1,1,82726,NA,0,0,9,461,1,0
205-1-2,4,2,PRACTICE,-20,2,3,1,0,84193,NA,0,0,0,513,1,0
205-1-2,4,2,PRACTICE,-19,2,2,0,1,85769,NA,0,0,9,696,1,0
205-1-2,4,2,PRACTICE,-18,2,4,0,0,87652,NA,0,0,0,447,1,0
205-1-2,4,2,TEST,1,2,3,1,0,89074,NA,0,0,0,544,1,0
205-1-2,4,2,TEST,2,2,4,0,0,90839,NA,0,0,0,389,1,0
205-1-2,4,2,TEST,3,2,2,0,1,92365,NA,0,0,9,585,1,0
205-1-2,4,2,TEST,4,2,1,1,1,94231,NA,0,0,9,509,1,0
205-1-2,4,2,TEST,5,2,4,0,0,95682,NA,0,0,0,379,1,0
205-1-2,4,2,TEST,6,2,3,1,0,97212,NA,0,0,0,400,1,0
205-1-2,4,2,TEST,7,2,1,1,1,98825,NA,0,0,9,354,1,0
205-1-2,4,2,TEST,8,2,2,0,1,100095,NA,0,0,0,339,0,0
205-1-2,4,2,TEST,9,2,3,1,0,101968,NA,0,0,0,467,1,0
205-1-2,4,2,TEST,10,2,1,1,1,103542,NA,0,0,9,574,1,0
205-1-2,4,2,TEST,11,2,4,0,0,105225,NA,0,0,0,494,1,0
205-1-2,4,2,TEST,12,2,2,0,1,106904,NA,0,0,9,638,1,0
205-1-2,4,2,TEST,13,2,4,0,0,108730,NA,0,0,0,388,1,0
205-1-2,4,2,TEST,14,2,2,0,1,110436,NA,0,0,9,988,1,0
205-1-2,4,2,TEST,15,2,3,1,0,112577,NA,0,0,0,527,1,0
205-1-2,4,2,TEST,16,2,1,1,1,114324,NA,0,0,9,480,1,0
205-1-2,4,2,TEST,17,2,2,0,1,116121,NA,0,0,9,508,1,0
205-1-2,4,2,TEST,18,2,1,1,1,117592,NA,0,0,9,494,1,0
205-1-2,4,2,TEST,19,2,3,1,0,119064,NA,0,0,0,470,1,0
205-1-2,4,2,TEST,20,2,4,0,0,120538,NA,0,0,0,372,1,0
205-1-2,4,2,TEST,21,2,3,1,0,122045,NA,0,0,0,455,1,0
205-1-2,4,2,TEST,22,2,2,0,1,123611,NA,0,0,0,314,0,0
205-1-2,4,2,TEST,23,2,1,1,1,125306,NA,0,0,9,393,1,0
205-1-2,4,2,TEST,24,2,4,0,0,126981,NA,0,0,0,440,1,0
205-1-2,4,2,TEST,25,2,2,0,1,128699,NA,0,0,9,552,1,0
205-1-2,4,3,PRACTICE,-25,3,1,1,1,133461,NA,0,0,9,1220,1,1
205-1-2,4,3,PRACTICE,-24,3,3,1,0,139825,1,1881,1,0,1938,1,0
205-1-2,4,3,PRACTICE,-23,3,4,0,0,142640,2,1249,1,0,1283,1,0
205-1-2,4,3,PRACTICE,-22,3,2,0,1,144938,2,1061,1,9,1079,1,0
205-1-2,4,3,PRACTICE,-21,3,3,1,0,147170,1,482,1,0,529,1,0
205-1-2,4,3,PRACTICE,-20,3,1,1,1,148917,1,550,1,9,572,1,0
205-1-2,4,3,PRACTICE,-19,3,2,0,1,150372,2,586,1,9,594,1,0
205-1-2,4,3,PRACTICE,-18,3,4,0,0,152219,2,549,1,0,559,1,0
205-1-2,4,3,TEST,1,3,2,0,1,153749,2,528,1,9,549,1,0
205-1-2,4,3,TEST,2,3,3,1,0,155606,1,518,1,0,544,1,0
205-1-2,4,3,TEST,3,3,1,1,1,157349,1,492,1,9,518,1,0
205-1-2,4,3,TEST,4,3,4,0,0,158776,2,481,1,0,485,1,0
205-1-2,4,3,TEST,5,3,3,1,0,160431,1,559,1,0,1090,1,0
205-1-2,4,3,TEST,6,3,2,0,1,162420,2,734,1,9,1113,1,0
205-1-2,4,3,TEST,7,3,1,1,1,164398,1,674,1,9,774,1,0
205-1-2,4,3,TEST,8,3,4,0,0,166285,2,948,1,9,218,0,0
205-1-2,4,3,TEST,9,3,2,0,1,168990,2,947,1,9,978,1,0
205-1-2,4,3,TEST,10,3,1,1,1,171007,1,813,1,9,841,1,0
205-1-2,4,3,TEST,11,3,4,0,0,173084,2,958,1,9,97,0,0
205-1-2,4,3,TEST,12,3,3,1,0,175737,1,547,1,0,579,1,0
205-1-2,4,3,TEST,13,3,4,0,0,177238,2,460,1,0,488,1,0
205-1-2,4,3,TEST,14,3,2,0,1,178600,2,701,1,9,748,1,0
205-1-2,4,3,TEST,15,3,3,1,0,180356,1,581,1,0,558,1,0
205-1-2,4,3,TEST,16,3,1,1,1,182215,1,506,1,9,548,1,0
205-1-2,4,3,TEST,17,3,3,1,0,183632,1,627,1,0,595,1,0
205-1-2,4,3,TEST,18,3,1,1,1,185145,1,518,1,9,530,1,0
205-1-2,4,3,TEST,19,3,4,0,0,186850,2,948,1,0,694,1,0
205-1-2,4,3,TEST,20,3,2,0,1,189092,2,901,1,9,923,1,0
205-1-2,4,3,TEST,21,3,1,1,1,191243,1,691,1,9,771,1,0
205-1-2,4,3,TEST,22,3,4,0,0,193025,2,957,1,0,953,1,0
205-1-2,4,3,TEST,23,3,3,1,0,195209,1,542,1,0,548,1,0
205-1-2,4,3,TEST,24,3,2,0,1,196981,2,527,1,9,559,1,0
205-1-2,4,3,TEST,25,3,4,0,0,198609,2,515,1,0,523,1,0
