subnum,block,trial,direction,stim,offset,fixationstart,delaytime,promptstart,arrowstart,maskstart,rt,corresp,resp,corr,bivalentcorr
105-4-3,P,0,-1,L,1,2336,2250,4591,5096,5097,559,<left>,<left>,1,1
105-4-3,P,0,1,D,1,5682,2500,8185,8691,8692,592,<down>,<down>,1,1
105-4-3,P,0,-1,U,2,9299,2750,12054,12559,12559,688,<up>,<up>,1,1
105-4-3,P,0,1,U,2,13259,3000,16262,16768,16769,646,<up>,<up>,1,1
105-4-3,P,0,1,U,1,17433,3000,20438,20943,20944,469,<up>,<up>,1,1
105-4-3,P,0,1,R,1,21435,3500,24940,25446,25447,488,<right>,<right>,1,1
105-4-3,P,0,-1,U,1,25958,3500,29464,29970,29971,567,<up>,<up>,1,1
105-4-3,P,0,1,D,1,30564,3500,34073,34580,34580,742,<down>,<down>,1,1
105-4-3,P,0,-1,D,2,37247,2500,39753,39960,39960,604,<down>,<down>,1,1
105-4-3,P,0,-1,U,2,40576,2250,42831,43038,43039,578,<up>,<up>,1,1
105-4-3,P,0,1,L,2,43634,3250,46888,47095,47095,874,<left>,<left>,1,1
105-4-3,P,0,-1,L,1,47985,2250,50241,50448,50448,631,<left>,<left>,1,1
105-4-3,P,0,-1,D,1,51095,3500,54601,54807,54807,743,<down>,<down>,1,1
105-4-3,P,0,-1,D,1,55560,3000,58566,58772,58772,438,<down>,<down>,1,1
105-4-3,P,0,-1,U,1,59227,3500,62731,62938,62939,518,<up>,<up>,1,1
105-4-3,P,0,1,R,1,63478,2250,65734,65941,65942,485,<right>,<right>,1,1
105-4-3,T,1,1,L,2,68858,2750,71614,71819,71820,669,<left>,<left>,1,1
105-4-3,T,2,-1,R,1,72500,2000,74506,74713,74713,510,<right>,<right>,1,1
105-4-3,T,3,-1,L,2,75239,3000,78245,78452,78452,698,<left>,<left>,1,1
105-4-3,T,4,-1,L,2,79165,2500,81670,81877,81877,673,<left>,<right>,0,1
105-4-3,T,5,1,U,2,82569,1500,84074,84281,84281,654,<up>,<up>,1,1
105-4-3,T,6,1,L,2,84944,2250,87200,87408,87408,552,<left>,<left>,1,1
105-4-3,T,7,-1,U,2,87984,3000,90989,91196,91196,649,<up>,<up>,1,1
105-4-3,T,8,-1,L,1,91865,2250,94120,94325,94326,555,<left>,<left>,1,1
105-4-3,T,9,1,D,2,94895,1750,96650,96855,96856,691,<down>,<down>,1,1
105-4-3,T,10,1,D,2,97560,3250,100816,101021,101022,603,<down>,<down>,1,1
105-4-3,T,11,1,R,1,101636,2750,104391,104597,104597,659,<right>,<right>,1,1
105-4-3,T,12,1,L,1,105269,1500,106773,106980,106981,514,<left>,<left>,1,1
105-4-3,T,13,-1,D,2,107512,1750,109268,109473,109474,534,<down>,<down>,1,1
105-4-3,T,14,1,U,2,110026,3000,113031,113237,113238,592,<up>,<up>,1,1
105-4-3,T,15,-1,U,2,113849,2000,115856,116061,116062,627,<up>,<down>,0,1
105-4-3,T,16,1,R,1,116704,2500,119209,119414,119415,542,<right>,<right>,1,1
105-4-3,T,17,-1,D,2,119973,2500,122479,122685,122686,579,<down>,<down>,1,1
105-4-3,T,18,1,L,1,123281,3000,126287,126494,126494,531,<left>,<left>,1,1
105-4-3,T,19,-1,U,1,127040,2750,129794,129999,130000,626,<up>,<up>,1,1
105-4-3,T,20,-1,U,1,130639,1500,132145,132350,132351,495,<up>,<up>,1,1
105-4-3,T,21,-1,L,2,132856,3500,136362,136569,136569,647,<left>,<left>,1,1
105-4-3,T,22,-1,L,2,137231,2750,139986,140192,140192,738,<left>,<left>,1,1
105-4-3,T,23,-1,U,2,140943,3500,144449,144656,144657,543,<up>,<up>,1,1
105-4-3,T,24,1,L,1,145217,2250,147472,147678,147678,547,<left>,<left>,1,1
105-4-3,T,25,1,D,2,148240,3250,151496,151702,151702,656,<down>,<down>,1,1
105-4-3,T,26,1,R,2,152376,2000,154381,154586,154587,667,<right>,<right>,1,1
105-4-3,T,27,1,L,1,155270,2750,158027,158234,158234,590,<left>,<left>,1,1
105-4-3,T,28,-1,U,1,158837,3250,162093,162298,162299,573,<up>,<up>,1,1
105-4-3,T,29,-1,D,2,162885,3250,166140,166347,166348,599,<down>,<down>,1,1
105-4-3,T,30,1,U,1,166963,3000,169968,170175,170175,549,<up>,<up>,1,1
105-4-3,T,31,-1,L,2,170738,2750,173494,173701,173701,548,<left>,<left>,1,1
105-4-3,T,32,-1,U,2,174260,2000,176266,176473,176473,481,<up>,<up>,1,1
105-4-3,T,33,1,L,2,176970,1750,178725,178932,178933,584,<left>,<left>,1,1
105-4-3,T,34,1,D,2,179529,2000,181533,181739,181740,702,<down>,<down>,1,1
105-4-3,T,35,1,U,2,182458,3250,185714,185921,185922,474,<up>,<up>,1,1
105-4-3,T,36,-1,R,2,186412,2250,188667,188873,188874,572,<right>,<right>,1,1
105-4-3,T,37,-1,U,2,189457,2750,192211,192416,192416,573,<up>,<up>,1,1
105-4-3,T,38,1,L,1,193009,2750,195765,195972,195972,481,<left>,<left>,1,1
105-4-3,T,39,-1,U,2,196472,1500,197977,198182,198183,635,<up>,<up>,1,1
105-4-3,T,40,-1,R,1,198833,1500,200338,200545,200545,516,<right>,<right>,1,1
105-4-3,T,41,1,R,2,201079,2750,203835,204041,204042,629,<right>,<right>,1,1
105-4-3,T,42,1,U,1,204684,3000,207688,207894,207895,442,<up>,<up>,1,1
105-4-3,T,43,-1,U,2,208355,1500,209859,210064,210065,632,<up>,<up>,1,1
105-4-3,T,44,1,D,2,210709,1750,212464,212671,212671,665,<down>,<down>,1,1
105-4-3,T,45,-1,U,2,213353,2750,216108,216314,216315,617,<up>,<up>,1,1
105-4-3,T,46,-1,D,2,216949,1500,218454,218660,218661,508,<down>,<down>,1,1
105-4-3,T,47,1,D,2,219182,2000,221188,221395,221395,623,<down>,<down>,1,1
105-4-3,T,48,1,D,2,222036,2250,224292,224498,224498,485,<down>,<down>,1,1
105-4-3,T,49,1,U,1,224996,3250,228250,228457,228457,501,<up>,<up>,1,1
105-4-3,T,50,-1,U,1,228969,1750,230724,230931,230931,511,<up>,<up>,1,1
