subnum,stimtype,block,trialtype,trial,condition,stim,dim1,dim2,time0,resp1,rt1,corr1,resp2,rt2,corr2,tooslow
201-2-3,4,1,PRACTICE,-25,1,3,1,0,9643,1,444,1,NA,0,0,0
201-2-3,4,1,PRACTICE,-24,1,1,1,1,10959,1,409,1,NA,0,0,0
201-2-3,4,1,PRACTICE,-23,1,4,0,0,12555,2,338,1,NA,0,0,0
201-2-3,4,1,PRACTICE,-22,1,2,0,1,14111,2,398,1,NA,0,0,0
201-2-3,4,1,PRACTICE,-21,1,3,1,0,15625,1,348,1,NA,0,0,0
201-2-3,4,1,PRACTICE,-20,1,1,1,1,16869,1,352,1,NA,0,0,0
201-2-3,4,1,PRACTICE,-19,1,4,0,0,18370,2,392,1,NA,0,0,0
201-2-3,4,1,PRACTICE,-18,1,2,0,1,20060,2,362,1,NA,0,0,0
201-2-3,4,1,TEST,1,1,3,1,0,21682,1,511,1,NA,0,0,0
201-2-3,4,1,TEST,2,1,2,0,1,23191,2,534,1,NA,0,0,0
201-2-3,4,1,TEST,3,1,4,0,0,24796,2,391,1,NA,0,0,0
201-2-3,4,1,TEST,4,1,1,1,1,26439,1,378,1,NA,0,0,0
201-2-3,4,1,TEST,5,1,2,0,1,27850,2,348,1,NA,0,0,0
201-2-3,4,1,TEST,6,1,3,1,0,29183,1,408,1,NA,0,0,0
201-2-3,4,1,TEST,7,1,1,1,1,30856,1,444,1,NA,0,0,0
201-2-3,4,1,TEST,8,1,4,0,0,32518,2,374,1,NA,0,0,0
201-2-3,4,1,TEST,9,1,2,0,1,33905,2,464,1,NA,0,0,0
201-2-3,4,1,TEST,10,1,3,1,0,35612,1,360,1,NA,0,0,0
201-2-3,4,1,TEST,11,1,4,0,0,37226,2,347,1,NA,0,0,0
201-2-3,4,1,TEST,12,1,1,1,1,38819,1,341,1,NA,0,0,0
201-2-3,4,1,TEST,13,1,3,1,0,40157,1,476,1,NA,0,0,0
201-2-3,4,1,TEST,14,1,1,1,1,41548,1,362,1,NA,0,0,0
201-2-3,4,1,TEST,15,1,2,0,1,42819,2,383,1,NA,0,0,0
201-2-3,4,1,TEST,16,1,4,0,0,44383,2,450,1,NA,0,0,0
201-2-3,4,1,TEST,17,1,2,0,1,46136,2,363,1,NA,0,0,0
201-2-3,4,1,TEST,18,1,4,0,0,47660,2,536,1,NA,0,0,0
201-2-3,4,1,TEST,19,1,1,1,1,49293,1,418,1,NA,0,0,0
201-2-3,4,1,TEST,20,1,3,1,0,50764,1,508,1,NA,0,0,0
201-2-3,4,1,TEST,21,1,4,0,0,52535,2,400,1,NA,0,0,0
201-2-3,4,1,TEST,22,1,2,0,1,53990,2,402,1,NA,0,0,0
201-2-3,4,1,TEST,23,1,1,1,1,55561,1,341,1,NA,0,0,0
201-2-3,4,1,TEST,24,1,3,1,0,56771,1,337,1,NA,0,0,0
201-2-3,4,1,TEST,25,1,4,0,0,58419,2,358,1,NA,0,0,0
201-2-3,4,2,PRACTICE,-25,2,2,0,1,63445,NA,0,0,9,574,1,0
201-2-3,4,2,PRACTICE,-24,2,1,1,1,65049,NA,0,0,9,346,1,0
201-2-3,4,2,PRACTICE,-23,2,3,1,0,66373,NA,0,0,0,387,1,0
201-2-3,4,2,PRACTICE,-22,2,4,0,0,67757,NA,0,0,0,429,1,0
201-2-3,4,2,PRACTICE,-21,2,4,0,0,69082,NA,0,0,0,381,1,0
201-2-3,4,2,PRACTICE,-20,2,1,1,1,70405,NA,0,0,9,395,1,0
201-2-3,4,2,PRACTICE,-19,2,3,1,0,71833,NA,0,0,0,360,1,0
201-2-3,4,2,PRACTICE,-18,2,2,0,1,73201,NA,0,0,9,321,1,0
201-2-3,4,2,TEST,1,2,4,0,0,74797,NA,0,0,0,429,1,0
201-2-3,4,2,TEST,2,2,2,0,1,76070,NA,0,0,9,386,1,0
201-2-3,4,2,TEST,3,2,1,1,1,77387,NA,0,0,9,424,1,0
201-2-3,4,2,TEST,4,2,3,1,0,79100,NA,0,0,0,370,1,0
201-2-3,4,2,TEST,5,2,1,1,1,80627,NA,0,0,9,388,1,0
201-2-3,4,2,TEST,6,2,3,1,0,82199,NA,0,0,0,310,1,0
201-2-3,4,2,TEST,7,2,4,0,0,83532,NA,0,0,9,369,0,0
201-2-3,4,2,TEST,8,2,2,0,1,85395,NA,0,0,9,391,1,0
201-2-3,4,2,TEST,9,2,1,1,1,86917,NA,0,0,9,410,1,0
201-2-3,4,2,TEST,10,2,3,1,0,88599,NA,0,0,0,370,1,0
201-2-3,4,2,TEST,11,2,4,0,0,89845,NA,0,0,0,355,1,0
201-2-3,4,2,TEST,12,2,2,0,1,91347,NA,0,0,9,404,1,0
201-2-3,4,2,TEST,13,2,4,0,0,92589,NA,0,0,0,365,1,0
201-2-3,4,2,TEST,14,2,3,1,0,93817,NA,0,0,0,372,1,0
201-2-3,4,2,TEST,15,2,1,1,1,95123,NA,0,0,9,397,1,0
201-2-3,4,2,TEST,16,2,2,0,1,96619,NA,0,0,9,334,1,0
201-2-3,4,2,TEST,17,2,1,1,1,98260,NA,0,0,9,270,1,0
201-2-3,4,2,TEST,18,2,2,0,1,99785,NA,0,0,9,330,1,0
201-2-3,4,2,TEST,19,2,4,0,0,101043,NA,0,0,0,392,1,0
201-2-3,4,2,TEST,20,2,3,1,0,102384,NA,0,0,0,496,1,0
201-2-3,4,2,TEST,21,2,1,1,1,104052,NA,0,0,9,338,1,0
201-2-3,4,2,TEST,22,2,4,0,0,105514,NA,0,0,0,401,1,0
201-2-3,4,2,TEST,23,2,2,0,1,107194,NA,0,0,9,423,1,0
201-2-3,4,2,TEST,24,2,3,1,0,108503,NA,0,0,0,350,1,0
201-2-3,4,2,TEST,25,2,4,0,0,110140,NA,0,0,0,472,1,0
201-2-3,4,3,PRACTICE,-25,3,3,1,0,115277,1,675,1,0,683,1,0
201-2-3,4,3,PRACTICE,-24,3,1,1,1,116953,1,456,1,9,464,1,0
201-2-3,4,3,PRACTICE,-23,3,2,0,1,118421,2,422,1,9,796,1,0
201-2-3,4,3,PRACTICE,-22,3,4,0,0,120321,2,422,1,0,418,1,0
201-2-3,4,3,PRACTICE,-21,3,2,0,1,122006,2,343,1,9,339,1,0
201-2-3,4,3,PRACTICE,-20,3,4,0,0,123355,2,484,1,0,478,1,0
201-2-3,4,3,PRACTICE,-19,3,3,1,0,124910,1,611,1,0,620,1,0
201-2-3,4,3,PRACTICE,-18,3,1,1,1,126472,1,466,1,9,476,1,0
201-2-3,4,3,TEST,1,3,1,1,1,127967,1,528,1,9,504,1,0
201-2-3,4,3,TEST,2,3,2,0,1,129762,2,383,1,0,387,0,0
201-2-3,4,3,TEST,3,3,3,1,0,131913,1,392,1,0,404,1,0
201-2-3,4,3,TEST,4,3,4,0,0,133562,2,422,1,0,436,1,0
201-2-3,4,3,TEST,5,3,2,0,1,135013,2,458,1,9,472,1,0
201-2-3,4,3,TEST,6,3,3,1,0,136422,1,403,1,0,407,1,0
201-2-3,4,3,TEST,7,3,1,1,1,137938,1,428,1,9,424,1,0
201-2-3,4,3,TEST,8,3,4,0,0,139529,2,372,1,0,384,1,0
201-2-3,4,3,TEST,9,3,2,0,1,141238,2,429,1,9,447,1,0
201-2-3,4,3,TEST,10,3,4,0,0,142709,2,449,1,0,457,1,0
201-2-3,4,3,TEST,11,3,3,1,0,144258,1,380,1,9,384,0,0
201-2-3,4,3,TEST,12,3,1,1,1,146076,1,496,1,9,504,1,0
201-2-3,4,3,TEST,13,3,3,1,0,147494,1,556,1,0,552,1,0
201-2-3,4,3,TEST,14,3,2,0,1,148934,2,434,1,9,438,1,0
201-2-3,4,3,TEST,15,3,4,0,0,150640,2,441,1,0,453,1,0
201-2-3,4,3,TEST,16,3,1,1,1,151937,1,358,1,9,368,1,0
201-2-3,4,3,TEST,17,3,3,1,0,153612,1,508,1,0,511,1,0
201-2-3,4,3,TEST,18,3,2,0,1,155035,2,361,1,9,381,1,0
201-2-3,4,3,TEST,19,3,4,0,0,156593,1,369,0,0,373,1,0
201-2-3,4,3,TEST,20,3,1,1,1,158758,1,470,1,9,474,1,0
201-2-3,4,3,TEST,21,3,4,0,0,160305,2,435,1,0,439,1,0
201-2-3,4,3,TEST,22,3,3,1,0,161765,1,563,1,0,574,1,0
201-2-3,4,3,TEST,23,3,2,0,1,163372,2,390,1,9,405,1,0
201-2-3,4,3,TEST,24,3,1,1,1,164783,1,443,1,0,452,0,0
201-2-3,4,3,TEST,25,3,2,0,1,166813,2,542,1,9,550,1,0
