subnum,block,trial,direction,stim,offset,fixationstart,delaytime,promptstart,arrowstart,maskstart,rt,corresp,resp,corr,bivalentcorr
102-4-4,P,0,1,L,1,12275,2000,14279,14785,14785,516,<left>,<left>,1,1
102-4-4,P,0,-1,U,2,15320,2000,17325,17829,17830,345,<up>,<down>,0,1
102-4-4,P,0,-1,D,1,18202,2000,20206,20712,20712,545,<down>,<down>,1,1
102-4-4,P,0,1,R,1,21280,1750,23034,23539,23539,403,<right>,<right>,1,1
102-4-4,P,0,1,D,1,23965,3000,26969,27473,27474,407,<down>,<down>,1,1
102-4-4,P,0,1,L,2,27904,2250,30157,30662,30663,488,<left>,<right>,0,1
102-4-4,P,0,-1,R,1,31177,2000,33182,33688,33688,541,<right>,<right>,1,1
102-4-4,P,0,1,D,2,34257,2500,36761,37266,37266,601,<down>,<down>,1,1
102-4-4,P,0,1,U,1,39743,3250,42997,43201,43202,542,<up>,<up>,1,1
102-4-4,P,0,1,D,1,43758,3000,46762,46967,46967,537,<down>,<down>,1,1
102-4-4,P,0,-1,R,1,47518,2750,50271,50477,50478,497,<right>,<left>,0,1
102-4-4,P,0,-1,L,2,50987,2250,53240,53446,53447,743,<left>,<left>,1,1
102-4-4,P,0,1,U,2,54204,3000,57208,57413,57414,657,<up>,<up>,1,1
102-4-4,P,0,-1,U,1,58084,1500,59588,59793,59793,475,<up>,<up>,1,1
102-4-4,P,0,-1,D,1,60281,1500,61784,61989,61990,523,<down>,<down>,1,1
102-4-4,P,0,-1,U,2,62530,2000,64534,64740,64740,639,<up>,<up>,1,1
102-4-4,T,1,-1,R,1,67447,3500,70951,71156,71157,523,<right>,<right>,1,1
102-4-4,T,2,-1,D,2,71699,3000,74702,74906,74907,680,<down>,<down>,1,1
102-4-4,T,3,-1,U,1,75599,2750,78353,78557,78558,503,<up>,<up>,1,1
102-4-4,T,4,-1,R,2,79072,2500,81576,81781,81781,581,<right>,<right>,1,1
102-4-4,T,5,-1,L,1,82377,2500,84881,85085,85086,555,<left>,<left>,1,1
102-4-4,T,6,1,L,2,85657,1750,87411,87615,87616,653,<left>,<left>,1,1
102-4-4,T,7,1,D,1,88282,1500,89786,89992,89993,474,<down>,<down>,1,1
102-4-4,T,8,1,U,2,90482,2500,92987,93193,93193,664,<up>,<up>,1,1
102-4-4,T,9,-1,L,1,93875,1500,95379,95583,95584,586,<left>,<left>,1,1
102-4-4,T,10,-1,L,2,96185,2750,98938,99144,99144,726,<left>,<left>,1,1
102-4-4,T,11,1,L,1,99883,3000,102888,103093,103093,701,<left>,<left>,1,1
102-4-4,T,12,1,L,1,103805,2500,106309,106514,106515,462,<left>,<left>,1,1
102-4-4,T,13,-1,R,2,106994,3000,109998,110202,110203,635,<right>,<right>,1,1
102-4-4,T,14,1,L,1,110851,2500,113355,113559,113560,680,<left>,<left>,1,1
102-4-4,T,15,1,L,2,114253,3500,117757,117962,117963,555,<left>,<left>,1,1
102-4-4,T,16,-1,R,2,118532,2500,121036,121241,121241,682,<right>,<right>,1,1
102-4-4,T,17,-1,U,1,121939,2750,124692,124897,124897,687,<up>,<up>,1,1
102-4-4,T,18,1,U,1,125601,2750,128355,128560,128560,474,<up>,<up>,1,1
102-4-4,T,19,1,L,2,129060,2000,131064,131269,131269,600,<left>,<left>,1,1
102-4-4,T,20,-1,U,2,131882,3500,135386,135591,135591,532,<up>,<up>,1,1
102-4-4,T,21,1,D,1,136134,2000,138137,138342,138342,541,<down>,<down>,1,1
102-4-4,T,22,-1,R,2,138898,1750,140651,140855,140855,667,<right>,<right>,1,1
102-4-4,T,23,-1,L,1,141539,3500,145044,145249,145250,477,<left>,<left>,1,1
102-4-4,T,24,1,D,1,145744,3250,148999,149204,149204,616,<down>,<down>,1,1
102-4-4,T,25,-1,L,1,149831,2500,152335,152540,152540,514,<left>,<left>,1,1
102-4-4,T,26,-1,L,1,153070,3250,156324,156529,156530,544,<left>,<left>,1,1
102-4-4,T,27,-1,R,2,157087,3250,160341,160545,160546,720,<right>,<right>,1,1
102-4-4,T,28,-1,L,2,161280,2500,163784,163988,163989,658,<left>,<left>,1,1
102-4-4,T,29,-1,R,2,164661,3000,167665,167870,167871,708,<right>,<right>,1,1
102-4-4,T,30,-1,U,1,168593,3000,171597,171802,171802,472,<up>,<up>,1,1
102-4-4,T,31,1,R,1,172298,2500,174802,175007,175007,472,<right>,<right>,1,1
102-4-4,T,32,-1,L,1,175492,2750,178245,178450,178450,558,<left>,<left>,1,1
102-4-4,T,33,-1,R,2,179026,1500,180530,180734,180735,634,<right>,<left>,0,1
102-4-4,T,34,1,L,1,181378,2000,183382,183587,183587,521,<left>,<left>,1,1
102-4-4,T,35,1,D,1,184121,2250,186375,186580,186580,498,<down>,<down>,1,1
102-4-4,T,36,-1,D,1,187099,2750,189853,190058,190058,494,<down>,<down>,1,1
102-4-4,T,37,-1,L,1,190567,3000,193571,193776,193776,573,<left>,<left>,1,1
102-4-4,T,38,1,R,1,194365,2500,196869,197074,197074,557,<right>,<right>,1,1
102-4-4,T,39,1,U,1,197641,2500,200144,200349,200349,484,<up>,<up>,1,1
102-4-4,T,40,-1,D,1,200850,2000,202853,203057,203058,574,<down>,<down>,1,1
102-4-4,T,41,1,R,1,203647,1750,205401,205606,205607,506,<right>,<right>,1,1
102-4-4,T,42,-1,U,1,206125,1500,207629,207834,207835,646,<up>,<up>,1,1
102-4-4,T,43,-1,L,2,208495,3500,211999,212203,212204,417,<left>,<left>,1,1
102-4-4,T,44,-1,L,1,212636,3500,216140,216345,216346,425,<left>,<left>,1,1
102-4-4,T,45,1,L,2,216784,2250,219037,219242,219242,487,<left>,<right>,0,1
102-4-4,T,46,1,D,1,219742,2000,221745,221950,221950,736,<down>,<down>,1,1
102-4-4,T,47,-1,R,1,222708,2250,224961,225166,225166,423,<right>,<left>,0,1
102-4-4,T,48,1,U,1,225604,3500,229108,229313,229314,433,<up>,<up>,1,1
102-4-4,T,49,-1,U,2,229758,3000,232762,232968,232968,702,<up>,<up>,1,1
102-4-4,T,50,-1,R,1,233687,3500,237191,237396,237396,566,<right>,<right>,1,1
