subnum,stimtype,block,trialtype,trial,condition,stim,dim1,dim2,time0,resp1,rt1,corr1,resp2,rt2,corr2,tooslow
206-1-3,4,1,PRACTICE,-25,1,2,0,1,7940,2,410,1,NA,0,0,0
206-1-3,4,1,PRACTICE,-24,1,1,1,1,9200,1,378,1,NA,0,0,0
206-1-3,4,1,PRACTICE,-23,1,3,1,0,10745,1,387,1,NA,0,0,0
206-1-3,4,1,PRACTICE,-22,1,4,0,0,12124,2,330,1,NA,0,0,0
206-1-3,4,1,PRACTICE,-21,1,3,1,0,13705,1,332,1,NA,0,0,0
206-1-3,4,1,PRACTICE,-20,1,2,0,1,14882,2,376,1,NA,0,0,0
206-1-3,4,1,PRACTICE,-19,1,4,0,0,16175,2,367,1,NA,0,0,0
206-1-3,4,1,PRACTICE,-18,1,1,1,1,17476,1,366,1,NA,0,0,0
206-1-3,4,1,TEST,1,1,1,1,1,18883,1,350,1,NA,0,0,0
206-1-3,4,1,TEST,2,1,2,0,1,20243,2,285,1,NA,0,0,0
206-1-3,4,1,TEST,3,1,3,1,0,21743,1,318,1,NA,0,0,0
206-1-3,4,1,TEST,4,1,4,0,0,23169,2,415,1,NA,0,0,0
206-1-3,4,1,TEST,5,1,1,1,1,24739,1,315,1,NA,0,0,0
206-1-3,4,1,TEST,6,1,2,0,1,26246,2,326,1,NA,0,0,0
206-1-3,4,1,TEST,7,1,4,0,0,27783,2,379,1,NA,0,0,0
206-1-3,4,1,TEST,8,1,3,1,0,29173,1,393,1,NA,0,0,0
206-1-3,4,1,TEST,9,1,1,1,1,30573,1,383,1,NA,0,0,0
206-1-3,4,1,TEST,10,1,4,0,0,32181,2,273,1,NA,0,0,0
206-1-3,4,1,TEST,11,1,2,0,1,33472,2,388,1,NA,0,0,0
206-1-3,4,1,TEST,12,1,3,1,0,34808,1,412,1,NA,0,0,0
206-1-3,4,1,TEST,13,1,1,1,1,36230,1,399,1,NA,0,0,0
206-1-3,4,1,TEST,14,1,2,0,1,37796,2,366,1,NA,0,0,0
206-1-3,4,1,TEST,15,1,4,0,0,39448,2,346,1,NA,0,0,0
206-1-3,4,1,TEST,16,1,3,1,0,40911,1,378,1,NA,0,0,0
206-1-3,4,1,TEST,17,1,4,0,0,42151,2,400,1,NA,0,0,0
206-1-3,4,1,TEST,18,1,1,1,1,43777,1,397,1,NA,0,0,0
206-1-3,4,1,TEST,19,1,3,1,0,45321,1,414,1,NA,0,0,0
206-1-3,4,1,TEST,20,1,2,0,1,46821,2,364,1,NA,0,0,0
206-1-3,4,1,TEST,21,1,3,1,0,48393,1,320,1,NA,0,0,0
206-1-3,4,1,TEST,22,1,1,1,1,49908,1,345,1,NA,0,0,0
206-1-3,4,1,TEST,23,1,4,0,0,51224,2,438,1,NA,0,0,0
206-1-3,4,1,TEST,24,1,2,0,1,52992,2,357,1,NA,0,0,0
206-1-3,4,1,TEST,25,1,4,0,0,54456,2,391,1,NA,0,0,0
206-1-3,4,2,PRACTICE,-25,2,3,1,0,60264,NA,0,0,0,390,1,0
206-1-3,4,2,PRACTICE,-24,2,2,0,1,61661,NA,0,0,9,438,1,0
206-1-3,4,2,PRACTICE,-23,2,1,1,1,63231,NA,0,0,9,464,1,0
206-1-3,4,2,PRACTICE,-22,2,4,0,0,64639,NA,0,0,0,396,1,0
206-1-3,4,2,PRACTICE,-21,2,4,0,0,65908,NA,0,0,0,361,1,0
206-1-3,4,2,PRACTICE,-20,2,2,0,1,67178,NA,0,0,9,410,1,0
206-1-3,4,2,PRACTICE,-19,2,3,1,0,68441,NA,0,0,0,330,1,0
206-1-3,4,2,PRACTICE,-18,2,1,1,1,69869,NA,0,0,9,341,1,0
206-1-3,4,2,TEST,1,2,4,0,0,71379,NA,0,0,0,375,1,0
206-1-3,4,2,TEST,2,2,3,1,0,72870,NA,0,0,0,428,1,0
206-1-3,4,2,TEST,3,2,1,1,1,74543,NA,0,0,9,390,1,0
206-1-3,4,2,TEST,4,2,2,0,1,75784,NA,0,0,9,443,1,0
206-1-3,4,2,TEST,5,2,4,0,0,77393,NA,0,0,0,342,1,0
206-1-3,4,2,TEST,6,2,2,0,1,79020,NA,0,0,9,344,1,0
206-1-3,4,2,TEST,7,2,3,1,0,80428,NA,0,0,0,364,1,0
206-1-3,4,2,TEST,8,2,1,1,1,81878,NA,0,0,9,382,1,0
206-1-3,4,2,TEST,9,2,2,0,1,83311,NA,0,0,9,412,1,0
206-1-3,4,2,TEST,10,2,1,1,1,84747,NA,0,0,9,420,1,0
206-1-3,4,2,TEST,11,2,4,0,0,86341,NA,0,0,0,378,1,0
206-1-3,4,2,TEST,12,2,3,1,0,87985,NA,0,0,0,347,1,0
206-1-3,4,2,TEST,13,2,4,0,0,89171,NA,0,0,0,391,1,0
206-1-3,4,2,TEST,14,2,1,1,1,90410,NA,0,0,9,415,1,0
206-1-3,4,2,TEST,15,2,2,0,1,91883,NA,0,0,9,390,1,0
206-1-3,4,2,TEST,16,2,3,1,0,93459,NA,0,0,0,344,1,0
206-1-3,4,2,TEST,17,2,4,0,0,94691,NA,0,0,0,383,1,0
206-1-3,4,2,TEST,18,2,1,1,1,96310,NA,0,0,9,342,1,0
206-1-3,4,2,TEST,19,2,3,1,0,97609,NA,0,0,0,382,1,0
206-1-3,4,2,TEST,20,2,2,0,1,98879,NA,0,0,9,414,1,0
206-1-3,4,2,TEST,21,2,1,1,1,100267,NA,0,0,9,420,1,0
206-1-3,4,2,TEST,22,2,3,1,0,101593,NA,0,0,0,368,1,0
206-1-3,4,2,TEST,23,2,4,0,0,103255,NA,0,0,0,376,1,0
206-1-3,4,2,TEST,24,2,2,0,1,104665,NA,0,0,9,358,1,0
206-1-3,4,2,TEST,25,2,1,1,1,105991,NA,0,0,9,394,1,0
206-1-3,4,3,PRACTICE,-25,3,1,1,1,111763,1,544,1,9,617,1,0
206-1-3,4,3,PRACTICE,-24,3,2,0,1,113581,2,570,1,9,642,1,0
206-1-3,4,3,PRACTICE,-23,3,4,0,0,115274,2,565,1,0,668,1,0
206-1-3,4,3,PRACTICE,-22,3,3,1,0,116813,1,822,1,0,932,1,0
206-1-3,4,3,PRACTICE,-21,3,4,0,0,119077,2,508,1,0,606,1,0
206-1-3,4,3,PRACTICE,-20,3,3,1,0,121015,1,496,1,0,603,1,0
206-1-3,4,3,PRACTICE,-19,3,1,1,1,122630,1,394,1,9,486,1,0
206-1-3,4,3,PRACTICE,-18,3,2,0,1,124330,2,440,1,9,514,1,0
206-1-3,4,3,TEST,1,3,3,1,0,126127,1,460,1,0,538,1,0
206-1-3,4,3,TEST,2,3,1,1,1,127729,1,455,1,9,517,1,0
206-1-3,4,3,TEST,3,3,4,0,0,129158,2,472,1,0,548,1,0
206-1-3,4,3,TEST,4,3,2,0,1,130775,2,506,1,9,590,1,0
206-1-3,4,3,TEST,5,3,1,1,1,132341,1,525,1,9,625,1,0
206-1-3,4,3,TEST,6,3,3,1,0,133960,1,584,1,0,692,1,0
206-1-3,4,3,TEST,7,3,2,0,1,135572,2,419,1,9,481,1,0
206-1-3,4,3,TEST,8,3,4,0,0,136948,2,372,1,0,430,1,0
206-1-3,4,3,TEST,9,3,3,1,0,138276,1,410,1,9,497,0,0
206-1-3,4,3,TEST,10,3,2,0,1,140487,2,489,1,9,579,1,0
206-1-3,4,3,TEST,11,3,4,0,0,142253,2,490,1,0,582,1,0
206-1-3,4,3,TEST,12,3,1,1,1,143849,1,481,1,9,593,1,0
206-1-3,4,3,TEST,13,3,3,1,0,145383,1,485,1,0,569,1,0
206-1-3,4,3,TEST,14,3,4,0,0,147235,2,472,1,0,543,1,0
206-1-3,4,3,TEST,15,3,2,0,1,148965,2,456,1,9,538,1,0
206-1-3,4,3,TEST,16,3,1,1,1,150511,1,486,1,9,598,1,0
206-1-3,4,3,TEST,17,3,4,0,0,152324,2,464,1,0,552,1,0
206-1-3,4,3,TEST,18,3,3,1,0,153909,1,536,1,0,622,1,0
206-1-3,4,3,TEST,19,3,1,1,1,155712,1,454,1,9,554,1,0
206-1-3,4,3,TEST,20,3,2,0,1,157252,2,432,1,9,516,1,0
206-1-3,4,3,TEST,21,3,3,1,0,158619,1,397,1,0,480,1,0
206-1-3,4,3,TEST,22,3,4,0,0,160081,2,460,1,0,526,1,0
206-1-3,4,3,TEST,23,3,1,1,1,161698,1,416,1,9,525,1,0
206-1-3,4,3,TEST,24,3,2,0,1,163157,2,489,1,9,563,1,0
206-1-3,4,3,TEST,25,3,1,1,1,164681,1,507,1,9,615,1,0
