subnum,stimtype,block,trialtype,trial,condition,stim,dim1,dim2,time0,resp1,rt1,corr1,resp2,rt2,corr2,tooslow
108-4-1,4,1,PRACTICE,-25,1,1,1,1,9247,1,781,1,NA,0,0,0
108-4-1,4,1,PRACTICE,-24,1,3,1,0,10951,1,450,1,NA,0,0,0
108-4-1,4,1,PRACTICE,-23,1,4,0,0,12703,2,505,1,NA,0,0,0
108-4-1,4,1,PRACTICE,-22,1,2,0,1,14088,2,598,1,NA,0,0,0
108-4-1,4,1,PRACTICE,-21,1,4,0,0,15553,2,452,1,NA,0,0,0
108-4-1,4,1,PRACTICE,-20,1,1,1,1,16884,1,437,1,NA,0,0,0
108-4-1,4,1,PRACTICE,-19,1,2,0,1,18574,2,541,1,NA,0,0,0
108-4-1,4,1,PRACTICE,-18,1,3,1,0,20284,1,448,1,NA,0,0,0
108-4-1,4,1,TEST,1,1,3,1,0,21984,1,511,1,NA,0,0,0
108-4-1,4,1,TEST,2,1,4,0,0,23400,2,474,1,NA,0,0,0
108-4-1,4,1,TEST,3,1,1,1,1,24768,1,483,1,NA,0,0,0
108-4-1,4,1,TEST,4,1,2,0,1,26153,2,521,1,NA,0,0,0
108-4-1,4,1,TEST,5,1,1,1,1,27826,1,395,1,NA,0,0,0
108-4-1,4,1,TEST,6,1,4,0,0,29361,2,444,1,NA,0,0,0
108-4-1,4,1,TEST,7,1,3,1,0,30856,1,370,1,NA,0,0,0
108-4-1,4,1,TEST,8,1,2,0,1,32265,2,389,1,NA,0,0,0
108-4-1,4,1,TEST,9,1,4,0,0,33845,2,504,1,NA,0,0,0
108-4-1,4,1,TEST,10,1,1,1,1,35370,1,471,1,NA,0,0,0
108-4-1,4,1,TEST,11,1,3,1,0,36812,1,474,1,NA,0,0,0
108-4-1,4,1,TEST,12,1,2,0,1,38381,2,393,1,NA,0,0,0
108-4-1,4,1,TEST,13,1,1,1,1,39957,1,415,1,NA,0,0,0
108-4-1,4,1,TEST,14,1,2,0,1,41605,2,477,1,NA,0,0,0
108-4-1,4,1,TEST,15,1,3,1,0,43384,1,505,1,NA,0,0,0
108-4-1,4,1,TEST,16,1,4,0,0,45029,2,432,1,NA,0,0,0
108-4-1,4,1,TEST,17,1,3,1,0,46659,1,419,1,NA,0,0,0
108-4-1,4,1,TEST,18,1,2,0,1,48055,2,437,1,NA,0,0,0
108-4-1,4,1,TEST,19,1,4,0,0,49518,2,446,1,NA,0,0,0
108-4-1,4,1,TEST,20,1,1,1,1,51168,1,344,1,NA,0,0,0
108-4-1,4,1,TEST,21,1,3,1,0,52442,1,409,1,NA,0,0,0
108-4-1,4,1,TEST,22,1,2,0,1,53915,2,576,1,NA,0,0,0
108-4-1,4,1,TEST,23,1,4,0,0,55698,2,515,1,NA,0,0,0
108-4-1,4,1,TEST,24,1,1,1,1,57127,1,445,1,NA,0,0,0
108-4-1,4,1,TEST,25,1,2,0,1,58895,2,436,1,NA,0,0,0
108-4-1,4,2,PRACTICE,-25,2,2,0,1,64378,NA,0,0,9,502,1,0
108-4-1,4,2,PRACTICE,-24,2,4,0,0,65793,NA,0,0,0,380,1,0
108-4-1,4,2,PRACTICE,-23,2,3,1,0,67352,NA,0,0,0,394,1,0
108-4-1,4,2,PRACTICE,-22,2,1,1,1,68637,NA,0,0,9,410,1,0
108-4-1,4,2,PRACTICE,-21,2,3,1,0,70326,NA,0,0,0,392,1,0
108-4-1,4,2,PRACTICE,-20,2,4,0,0,71846,NA,0,0,0,316,1,0
108-4-1,4,2,PRACTICE,-19,2,1,1,1,73229,NA,0,0,9,380,1,0
108-4-1,4,2,PRACTICE,-18,2,2,0,1,74572,NA,0,0,9,448,1,0
108-4-1,4,2,TEST,1,2,2,0,1,75877,NA,0,0,9,410,1,0
108-4-1,4,2,TEST,2,2,4,0,0,77294,NA,0,0,0,430,1,0
108-4-1,4,2,TEST,3,2,1,1,1,78831,NA,0,0,9,450,1,0
108-4-1,4,2,TEST,4,2,3,1,0,80587,NA,0,0,0,379,1,0
108-4-1,4,2,TEST,5,2,2,0,1,81990,NA,0,0,9,460,1,0
108-4-1,4,2,TEST,6,2,1,1,1,83632,NA,0,0,9,373,1,0
108-4-1,4,2,TEST,7,2,3,1,0,85253,NA,0,0,0,434,1,0
108-4-1,4,2,TEST,8,2,4,0,0,86953,NA,0,0,0,534,1,0
108-4-1,4,2,TEST,9,2,1,1,1,88444,NA,0,0,9,569,1,0
108-4-1,4,2,TEST,10,2,3,1,0,90219,NA,0,0,0,542,1,0
108-4-1,4,2,TEST,11,2,2,0,1,91648,NA,0,0,9,486,1,0
108-4-1,4,2,TEST,12,2,4,0,0,93333,NA,0,0,0,434,1,0
108-4-1,4,2,TEST,13,2,2,0,1,94820,NA,0,0,9,460,1,0
108-4-1,4,2,TEST,14,2,1,1,1,96546,NA,0,0,9,448,1,0
108-4-1,4,2,TEST,15,2,4,0,0,98013,NA,0,0,0,396,1,0
108-4-1,4,2,TEST,16,2,3,1,0,99650,NA,0,0,0,475,1,0
108-4-1,4,2,TEST,17,2,4,0,0,101015,NA,0,0,0,368,1,0
108-4-1,4,2,TEST,18,2,2,0,1,102314,NA,0,0,9,480,1,0
108-4-1,4,2,TEST,19,2,1,1,1,104105,NA,0,0,9,424,1,0
108-4-1,4,2,TEST,20,2,3,1,0,105572,NA,0,0,0,370,1,0
108-4-1,4,2,TEST,21,2,2,0,1,106785,NA,0,0,9,412,1,0
108-4-1,4,2,TEST,22,2,3,1,0,108528,NA,0,0,0,344,1,0
108-4-1,4,2,TEST,23,2,4,0,0,109746,NA,0,0,0,488,1,0
108-4-1,4,2,TEST,24,2,1,1,1,111259,NA,0,0,9,464,1,0
108-4-1,4,2,TEST,25,2,4,0,0,112884,NA,0,0,0,415,1,0
108-4-1,4,3,PRACTICE,-25,3,3,1,0,119877,1,462,1,0,531,1,0
108-4-1,4,3,PRACTICE,-24,3,2,0,1,121519,2,525,1,9,588,1,0
108-4-1,4,3,PRACTICE,-23,3,4,0,0,123009,2,544,1,0,642,1,0
108-4-1,4,3,PRACTICE,-22,3,1,1,1,124764,1,461,1,9,585,1,0
108-4-1,4,3,PRACTICE,-21,3,3,1,0,126600,1,644,1,0,767,1,0
108-4-1,4,3,PRACTICE,-20,3,4,0,0,128637,2,523,1,0,651,1,0
108-4-1,4,3,PRACTICE,-19,3,2,0,1,130260,2,593,1,9,737,1,0
108-4-1,4,3,PRACTICE,-18,3,1,1,1,132122,1,681,1,9,875,1,0
108-4-1,4,3,TEST,1,3,3,1,0,134079,1,654,1,0,800,1,0
108-4-1,4,3,TEST,2,3,1,1,1,135982,1,524,1,9,740,1,0
108-4-1,4,3,TEST,3,3,4,0,0,137835,2,603,1,0,797,1,0
108-4-1,4,3,TEST,4,3,2,0,1,139595,2,586,1,9,722,1,0
108-4-1,4,3,TEST,5,3,3,1,0,141628,1,442,1,0,616,1,0
108-4-1,4,3,TEST,6,3,2,0,1,143374,2,581,1,9,750,1,0
108-4-1,4,3,TEST,7,3,1,1,1,145298,1,473,1,9,683,1,0
108-4-1,4,3,TEST,8,3,4,0,0,147100,2,537,1,0,649,1,0
108-4-1,4,3,TEST,9,3,1,1,1,148900,1,457,1,9,554,1,0
108-4-1,4,3,TEST,10,3,4,0,0,150764,2,553,1,0,670,1,0
108-4-1,4,3,TEST,11,3,2,0,1,152601,2,851,1,9,977,1,0
108-4-1,4,3,TEST,12,3,3,1,0,154654,1,493,1,0,567,1,0
108-4-1,4,3,TEST,13,3,4,0,0,156484,2,650,1,0,772,1,0
108-4-1,4,3,TEST,14,3,1,1,1,158357,1,555,1,9,780,1,0
108-4-1,4,3,TEST,15,3,2,0,1,160310,2,553,1,9,702,1,0
108-4-1,4,3,TEST,16,3,3,1,0,162019,1,504,1,0,692,1,0
108-4-1,4,3,TEST,17,3,2,0,1,163899,2,631,1,9,787,1,0
108-4-1,4,3,TEST,18,3,4,0,0,165638,2,551,1,0,733,1,0
108-4-1,4,3,TEST,19,3,3,1,0,167324,1,633,1,0,765,1,0
108-4-1,4,3,TEST,20,3,1,1,1,169271,1,591,1,9,801,1,0
108-4-1,4,3,TEST,21,3,4,0,0,171271,2,556,1,0,661,1,0
108-4-1,4,3,TEST,22,3,1,1,1,172964,1,400,1,9,564,1,0
108-4-1,4,3,TEST,23,3,3,1,0,174717,1,536,1,0,702,1,0
108-4-1,4,3,TEST,24,3,2,0,1,176509,2,710,1,9,820,1,0
108-4-1,4,3,TEST,25,3,3,1,0,178323,1,516,1,0,604,1,0
