subnum,block,trial,direction,stim,offset,fixationstart,delaytime,promptstart,arrowstart,maskstart,rt,corresp,resp,corr,bivalentcorr
108-3-4,P,0,-1,D,1,4346,1500,5852,6359,6360,697,<down>,<down>,1,1
108-3-4,P,0,-1,D,1,7086,1500,8592,9098,9098,719,<down>,<down>,1,1
108-3-4,P,0,1,U,1,9831,3250,13086,13592,13592,622,<up>,<up>,1,1
108-3-4,P,0,-1,U,2,14243,3250,17499,18006,18007,842,<up>,<up>,1,1
108-3-4,P,0,-1,D,2,18869,1500,20375,20881,20882,724,<down>,<down>,1,1
108-3-4,P,0,-1,R,1,21618,3500,25123,25629,25629,547,<right>,<right>,1,1
108-3-4,P,0,1,U,2,26199,1500,27705,28211,28212,768,<up>,<up>,1,1
108-3-4,P,0,-1,U,1,29001,1750,30757,31263,31263,531,<up>,<up>,1,1
108-3-4,P,0,-1,D,1,33902,3500,37407,37613,37613,750,<down>,<down>,1,1
108-3-4,P,0,-1,L,2,38380,1750,40134,40340,40341,603,<left>,<left>,1,1
108-3-4,P,0,1,R,2,40958,2000,42964,43170,43170,648,<right>,<right>,1,1
108-3-4,P,0,1,R,2,43829,2500,46334,46542,46542,632,<right>,<right>,1,1
108-3-4,P,0,-1,R,1,47188,2500,49694,49900,49901,564,<right>,<right>,1,1
108-3-4,P,0,1,U,2,50490,3250,53746,53952,53952,542,<up>,<up>,1,1
108-3-4,P,0,-1,D,1,54511,2750,57267,57474,57474,886,<down>,<down>,1,1
108-3-4,P,0,1,R,1,58374,3500,61879,62085,62085,488,<right>,<right>,1,1
108-3-4,T,1,1,D,1,64025,2000,66030,66239,66239,544,<down>,<down>,1,1
108-3-4,T,2,-1,R,2,66801,3000,69807,70013,70013,652,<right>,<right>,1,1
108-3-4,T,3,-1,R,2,70682,3250,73938,74144,74144,625,<right>,<right>,1,1
108-3-4,T,4,-1,L,2,74794,1750,76550,76756,76756,695,<left>,<left>,1,1
108-3-4,T,5,1,L,2,77469,3250,80725,80931,80932,754,<left>,<down>,0,0
108-3-4,T,6,-1,U,1,81700,1500,83206,83412,83412,646,<up>,<up>,1,1
108-3-4,T,7,-1,U,1,84069,1500,85574,85780,85780,792,<up>,<up>,1,1
108-3-4,T,8,1,L,1,86589,2250,88844,89052,89052,706,<left>,<left>,1,1
108-3-4,T,9,-1,U,1,89769,2250,92024,92230,92230,626,<up>,<up>,1,1
108-3-4,T,10,-1,L,1,92869,2500,95374,95581,95581,658,<left>,<left>,1,1
108-3-4,T,11,1,D,1,96257,1500,97763,97970,97970,855,<down>,<down>,1,1
108-3-4,T,12,1,U,1,98841,2000,100846,101053,101053,651,<up>,<up>,1,1
108-3-4,T,13,1,L,1,101713,2750,104468,104674,104675,684,<left>,<left>,1,1
108-3-4,T,14,1,U,2,105372,2500,107877,108083,108083,574,<up>,<up>,1,1
108-3-4,T,15,1,U,1,108672,2250,110927,111133,111133,544,<up>,<up>,1,1
108-3-4,T,16,1,R,1,111694,1750,113448,113655,113655,656,<right>,<right>,1,1
108-3-4,T,17,-1,U,1,114324,3000,117329,117535,117536,552,<up>,<up>,1,1
108-3-4,T,18,-1,L,1,118117,1500,119621,119827,119827,640,<left>,<left>,1,1
108-3-4,T,19,1,R,1,120481,3500,123986,124192,124192,595,<right>,<right>,1,1
108-3-4,T,20,-1,U,2,124799,3000,127805,128012,128012,669,<up>,<up>,1,1
108-3-4,T,21,-1,L,1,128692,2000,130698,130904,130904,633,<left>,<left>,1,1
108-3-4,T,22,-1,D,2,131553,1500,133059,133265,133265,925,<down>,<down>,1,1
108-3-4,T,23,-1,D,2,134203,1750,135959,136165,136166,555,<down>,<down>,1,1
108-3-4,T,24,-1,R,2,136735,2500,139241,139447,139447,755,<right>,<right>,1,1
108-3-4,T,25,-1,U,1,140215,3250,143471,143679,143680,832,<up>,<up>,1,1
108-3-4,T,26,-1,L,2,144530,3500,148036,148242,148243,674,<left>,<left>,1,1
108-3-4,T,27,-1,R,2,148936,3000,151941,152147,152147,561,<right>,<right>,1,1
108-3-4,T,28,1,L,2,152727,3000,155732,155938,155939,685,<left>,<left>,1,1
108-3-4,T,29,-1,D,1,156645,2000,158651,158857,158857,574,<down>,<down>,1,1
108-3-4,T,30,-1,L,2,159445,3000,162450,162657,162658,615,<left>,<left>,1,1
108-3-4,T,31,-1,R,2,163286,2250,165541,165749,165750,658,<right>,<right>,1,1
108-3-4,T,32,-1,R,1,166433,1500,167938,168144,168144,601,<right>,<right>,1,1
108-3-4,T,33,1,L,2,168760,2000,170766,170973,170974,789,<left>,<left>,1,1
108-3-4,T,34,-1,L,2,171774,3250,175030,175236,175236,566,<left>,<left>,1,1
108-3-4,T,35,-1,R,1,175812,2000,177817,178024,178024,656,<right>,<right>,1,1
108-3-4,T,36,-1,R,1,178690,2000,180696,180902,180902,545,<right>,<right>,1,1
108-3-4,T,37,1,L,2,181472,2250,183728,183935,183935,571,<left>,<left>,1,1
108-3-4,T,38,-1,U,2,184520,1750,186276,186482,186482,657,<up>,<up>,1,1
108-3-4,T,39,1,D,2,187148,1500,188653,188859,188860,737,<down>,<down>,1,1
108-3-4,T,40,1,R,2,189610,3250,192866,193073,193073,586,<right>,<right>,1,1
108-3-4,T,41,-1,D,2,193675,3250,196930,197136,197136,629,<down>,<down>,1,1
108-3-4,T,42,-1,L,1,197780,2250,200035,200240,200241,714,<left>,<left>,1,1
108-3-4,T,43,-1,U,1,200976,2250,203232,203438,203439,701,<up>,<up>,1,1
108-3-4,T,44,1,D,1,204154,3500,207660,207866,207867,690,<down>,<down>,1,1
108-3-4,T,45,1,R,2,208571,1750,210327,210533,210533,769,<right>,<right>,1,1
108-3-4,T,46,1,R,2,211317,2750,214073,214280,214281,842,<right>,<right>,1,1
108-3-4,T,47,-1,R,2,215137,3000,218143,218349,218350,667,<right>,<right>,1,1
108-3-4,T,48,-1,R,2,219027,3000,222033,222239,222240,625,<right>,<right>,1,1
108-3-4,T,49,-1,U,2,222891,3000,225897,226103,226103,865,<up>,<up>,1,1
108-3-4,T,50,1,D,1,226985,2500,229490,229696,229697,608,<down>,<down>,1,1
