subnum,block,trial,direction,stim,offset,fixationstart,delaytime,promptstart,arrowstart,maskstart,rt,corresp,resp,corr,bivalentcorr
200-3-2,P,0,1,R,1,1927,1750,3682,4188,4188,377,<right>,<right>,1,1
200-3-2,P,0,1,U,2,4589,3500,8094,8600,8600,503,<up>,<up>,1,1
200-3-2,P,0,-1,U,1,9127,3500,12633,13139,13140,433,<up>,<up>,1,1
200-3-2,P,0,1,D,1,13598,2500,16104,16612,16613,502,<down>,<down>,1,1
200-3-2,P,0,1,L,1,17143,2000,19149,19656,19657,411,<left>,<left>,1,1
200-3-2,P,0,-1,U,2,20091,2500,22597,23104,23104,514,<up>,<up>,1,1
200-3-2,P,0,-1,L,2,23637,3000,26643,27150,27150,577,<left>,<left>,1,1
200-3-2,P,0,1,R,2,27746,2250,30001,30507,30508,492,<right>,<right>,1,1
200-3-2,P,0,-1,D,1,33268,1750,35023,35230,35230,610,<down>,<down>,1,1
200-3-2,P,0,1,R,1,35852,3000,38857,39063,39064,485,<right>,<right>,1,1
200-3-2,P,0,1,R,2,39566,1500,41071,41277,41278,369,<right>,<right>,1,1
200-3-2,P,0,1,U,2,41662,2000,43669,43876,43877,517,<up>,<up>,1,1
200-3-2,P,0,-1,L,2,44405,1750,46160,46366,46366,542,<left>,<left>,1,1
200-3-2,P,0,-1,L,1,46921,3000,49926,50136,50137,498,<left>,<left>,1,1
200-3-2,P,0,1,R,1,50656,2750,53412,53620,53620,424,<right>,<right>,1,1
200-3-2,P,0,1,R,2,54057,3500,57563,57770,57770,474,<right>,<left>,0,1
200-3-2,T,1,-1,R,1,60643,3250,63897,64106,64106,474,<right>,<left>,0,1
200-3-2,T,2,1,U,2,64592,1750,66347,66553,66554,488,<up>,<up>,1,1
200-3-2,T,3,1,U,2,67058,2250,69314,69520,69521,456,<up>,<up>,1,1
200-3-2,T,4,1,L,2,69988,3250,73243,73449,73450,517,<left>,<left>,1,1
200-3-2,T,5,-1,D,1,73978,2500,76484,76691,76691,575,<down>,<down>,1,1
200-3-2,T,6,1,R,1,77284,3500,80789,80996,80996,398,<right>,<right>,1,1
200-3-2,T,7,1,U,2,81411,2000,83417,83624,83625,479,<up>,<up>,1,1
200-3-2,T,8,1,R,2,84116,3000,87121,87327,87327,474,<right>,<right>,1,1
200-3-2,T,9,1,U,1,87813,2500,90319,90528,90528,454,<up>,<up>,1,1
200-3-2,T,10,-1,D,1,90994,2750,93749,93955,93956,577,<down>,<down>,1,1
200-3-2,T,11,-1,D,1,94553,3000,97559,97765,97766,549,<down>,<down>,1,1
200-3-2,T,12,1,R,2,98332,2250,100588,100795,100795,408,<right>,<left>,0,1
200-3-2,T,13,1,U,1,101223,2250,103480,103687,103687,469,<up>,<up>,1,1
200-3-2,T,14,1,L,2,104168,3250,107424,107630,107631,658,<left>,<left>,1,1
200-3-2,T,15,-1,R,2,108302,2750,111058,111265,111265,534,<right>,<right>,1,1
200-3-2,T,16,-1,U,1,111814,1750,113569,113775,113776,496,<up>,<up>,1,1
200-3-2,T,17,-1,D,2,114284,3000,117290,117497,117497,501,<down>,<up>,0,1
200-3-2,T,18,-1,L,2,118014,3250,121269,121475,121476,579,<left>,<left>,1,1
200-3-2,T,19,-1,R,2,122072,3500,125577,125785,125785,634,<right>,<right>,1,1
200-3-2,T,20,-1,L,2,126430,2000,128435,128642,128642,520,<left>,<left>,1,1
200-3-2,T,21,1,L,1,129172,1500,130678,130886,130886,731,<left>,<left>,1,1
200-3-2,T,22,-1,R,1,131634,2500,134139,134346,134347,532,<right>,<right>,1,1
200-3-2,T,23,-1,R,1,134891,1500,136397,136603,136604,473,<right>,<right>,1,1
200-3-2,T,24,1,U,2,137092,1750,138848,139055,139055,586,<up>,<up>,1,1
200-3-2,T,25,1,R,1,139654,2750,142409,142615,142616,536,<right>,<right>,1,1
200-3-2,T,26,-1,R,2,143170,2250,145425,145632,145632,551,<right>,<right>,1,1
200-3-2,T,27,-1,D,1,146204,2500,148710,148918,148918,579,<down>,<down>,1,1
200-3-2,T,28,-1,U,1,149510,1750,151265,151471,151472,531,<up>,<up>,1,1
200-3-2,T,29,-1,D,1,152021,1500,153526,153732,153733,508,<down>,<down>,1,1
200-3-2,T,30,-1,U,2,154257,2000,156263,156469,156470,743,<up>,<up>,1,1
200-3-2,T,31,-1,L,2,157224,3500,160730,160938,160938,487,<left>,<left>,1,1
200-3-2,T,32,-1,U,1,161445,3250,164701,164910,164910,460,<up>,<up>,1,1
200-3-2,T,33,1,R,2,165380,1500,166886,167093,167093,573,<right>,<right>,1,1
200-3-2,T,34,-1,L,2,167686,3500,171191,171399,171399,507,<left>,<left>,1,1
200-3-2,T,35,1,U,1,171929,1500,173434,173640,173641,479,<up>,<up>,1,1
200-3-2,T,36,-1,L,2,174133,2000,176139,176348,176348,532,<left>,<left>,1,1
200-3-2,T,37,-1,D,2,176896,2250,179151,179358,179358,574,<down>,<down>,1,1
200-3-2,T,38,1,D,2,179952,3000,182957,183163,183164,526,<down>,<up>,0,1
200-3-2,T,39,1,U,2,183702,1500,185209,185416,185416,622,<up>,<up>,1,1
200-3-2,T,40,-1,U,2,186054,2500,188560,188766,188767,742,<up>,<up>,1,1
200-3-2,T,41,1,U,1,189520,3250,192776,192983,192983,678,<up>,<up>,1,1
200-3-2,T,42,1,U,2,193674,2750,196429,196636,196637,506,<up>,<up>,1,1
200-3-2,T,43,-1,R,1,197158,2250,199415,199623,199623,543,<right>,<right>,1,1
200-3-2,T,44,-1,R,2,200179,3250,203434,203640,203641,602,<right>,<right>,1,1
200-3-2,T,45,-1,R,2,204256,3250,207512,207718,207719,609,<right>,<left>,0,1
200-3-2,T,46,1,R,1,208341,2500,210847,211054,211054,480,<right>,<right>,1,1
200-3-2,T,47,1,R,2,211545,2500,214051,214257,214258,774,<right>,<right>,1,1
200-3-2,T,48,-1,R,2,215045,3000,218050,218257,218257,619,<right>,<right>,1,1
200-3-2,T,49,-1,U,1,218885,2500,221391,221597,221598,550,<up>,<up>,1,1
200-3-2,T,50,-1,U,2,222171,2000,224177,224383,224384,568,<up>,<up>,1,1
