subnum,block,trial,direction,stim,offset,fixationstart,delaytime,promptstart,arrowstart,maskstart,rt,corresp,resp,corr,bivalentcorr
205-1-3,P,0,-1,L,2,5251,2000,7257,7763,7764,605,<left>,<left>,1,1
205-1-3,P,0,-1,D,1,8389,1750,10143,10649,10649,561,<down>,<down>,1,1
205-1-3,P,0,-1,U,2,11228,1750,12983,13490,13490,653,<up>,<up>,1,1
205-1-3,P,0,-1,U,2,14157,2500,16661,17168,17169,430,<up>,<up>,1,1
205-1-3,P,0,1,R,1,17621,3500,21126,21632,21633,595,<right>,<right>,1,1
205-1-3,P,0,1,D,2,22251,3500,25756,26261,26262,649,<down>,<down>,1,1
205-1-3,P,0,1,R,2,26940,3500,30445,30952,30953,578,<right>,<right>,1,1
205-1-3,P,0,-1,U,2,31553,2750,34308,34815,34815,554,<up>,<up>,1,1
205-1-3,P,0,1,U,2,38681,2000,40687,40894,40894,579,<up>,<up>,1,1
205-1-3,P,0,-1,R,2,41488,1500,42992,43200,43200,1208,<right>,<left>,0,1
205-1-3,P,0,1,L,1,44419,3000,47425,47630,47631,600,<left>,<left>,1,1
205-1-3,P,0,1,U,2,48245,1750,49999,50205,50205,771,<up>,<up>,1,1
205-1-3,P,0,-1,U,1,50985,3000,53990,54197,54198,543,<up>,<up>,1,1
205-1-3,P,0,-1,D,1,54759,3500,58264,58469,58470,738,<down>,<down>,1,1
205-1-3,P,0,1,D,1,59219,2750,61976,62183,62184,660,<down>,<down>,1,1
205-1-3,P,0,-1,L,2,62855,3500,66359,66566,66567,572,<left>,<left>,1,1
205-1-3,T,1,-1,D,1,72641,1500,74146,74354,74354,634,<down>,<down>,1,1
205-1-3,T,2,1,L,1,75000,1500,76505,76710,76711,537,<left>,<left>,1,1
205-1-3,T,3,1,D,1,77258,1500,78763,78968,78969,602,<down>,<down>,1,1
205-1-3,T,4,-1,R,1,79584,3250,82838,83046,83046,546,<right>,<right>,1,1
205-1-3,T,5,-1,L,1,83609,3500,87114,87319,87320,548,<left>,<left>,1,1
205-1-3,T,6,-1,R,2,87886,2500,90390,90595,90596,639,<right>,<right>,1,1
205-1-3,T,7,-1,R,2,91250,2000,93255,93462,93462,590,<right>,<right>,1,1
205-1-3,T,8,1,U,2,94068,1500,95574,95781,95781,818,<up>,<up>,1,1
205-1-3,T,9,-1,L,1,96614,2250,98869,99074,99075,506,<left>,<left>,1,1
205-1-3,T,10,1,R,1,99599,2000,101605,101811,101812,579,<right>,<right>,1,1
205-1-3,T,11,-1,U,2,102406,3250,105660,105867,105868,502,<up>,<up>,1,1
205-1-3,T,12,1,D,2,106386,2750,109141,109346,109347,2367,<down>,<left>,0,0
205-1-3,T,13,-1,D,1,111727,2500,114233,114438,114439,556,<down>,<down>,1,1
205-1-3,T,14,-1,R,1,115012,2000,117016,117221,117222,553,<right>,<right>,1,1
205-1-3,T,15,-1,U,2,117788,2750,120542,120747,120748,598,<up>,<up>,1,1
205-1-3,T,16,-1,D,2,121356,3000,124360,124567,124567,599,<down>,<down>,1,1
205-1-3,T,17,1,L,2,125179,3000,128184,128390,128390,648,<left>,<left>,1,1
205-1-3,T,18,-1,L,2,129055,1750,130809,131016,131016,625,<left>,<left>,1,1
205-1-3,T,19,1,R,2,131656,1500,133161,133366,133367,724,<right>,<right>,1,1
205-1-3,T,20,1,D,2,134108,3250,137363,137570,137570,723,<down>,<down>,1,1
205-1-3,T,21,1,L,2,138307,2500,140813,141020,141020,667,<left>,<left>,1,1
205-1-3,T,22,1,U,1,141696,2750,144451,144656,144657,529,<up>,<up>,1,1
205-1-3,T,23,-1,U,1,145203,2750,147958,148163,148164,550,<up>,<left>,0,0
205-1-3,T,24,1,U,2,148731,2500,151236,151441,151442,579,<up>,<up>,1,1
205-1-3,T,25,-1,L,2,152034,2750,154789,154995,154995,565,<left>,<left>,1,1
205-1-3,T,26,1,L,2,155572,2750,158327,158535,158535,774,<left>,<left>,1,1
205-1-3,T,27,-1,U,2,159323,2500,161828,162035,162035,501,<up>,<up>,1,1
205-1-3,T,28,-1,R,1,162551,3000,165556,165763,165763,571,<right>,<left>,0,1
205-1-3,T,29,1,U,2,166351,1750,168107,168313,168314,664,<up>,<up>,1,1
205-1-3,T,30,-1,L,2,168993,2500,171499,171705,171705,539,<left>,<left>,1,1
205-1-3,T,31,-1,D,1,172258,2750,175012,175217,175218,620,<down>,<down>,1,1
205-1-3,T,32,-1,U,1,175854,3000,178858,179065,179066,568,<up>,<up>,1,1
205-1-3,T,33,1,R,2,179648,1500,181153,181358,181359,760,<right>,<right>,1,1
205-1-3,T,34,-1,U,1,182136,2250,184391,184598,184599,508,<up>,<up>,1,1
205-1-3,T,35,1,L,2,185125,3250,188381,188588,188588,683,<left>,<left>,1,1
205-1-3,T,36,-1,L,2,189284,3000,192290,192496,192496,646,<left>,<left>,1,1
205-1-3,T,37,1,D,1,193158,1500,194663,194870,194870,713,<down>,<down>,1,1
205-1-3,T,38,-1,D,1,195595,3500,199100,199307,199307,616,<down>,<down>,1,1
205-1-3,T,39,-1,U,1,199941,1500,201447,201654,201654,581,<up>,<up>,1,1
205-1-3,T,40,-1,U,1,202245,1750,204000,204208,204208,471,<up>,<up>,1,1
205-1-3,T,41,1,U,1,204694,3000,207700,207907,207908,620,<up>,<up>,1,1
205-1-3,T,42,1,R,2,208541,2250,210797,211004,211004,918,<right>,<right>,1,1
205-1-3,T,43,-1,L,1,211933,1750,213688,213893,213894,505,<left>,<left>,1,1
205-1-3,T,44,-1,L,2,214415,1500,215920,216125,216126,610,<left>,<left>,1,1
205-1-3,T,45,-1,R,1,216746,3000,219751,219958,219959,605,<right>,<right>,1,1
205-1-3,T,46,-1,R,2,220581,3500,224086,224293,224294,567,<right>,<right>,1,1
205-1-3,T,47,-1,R,2,224878,2500,227382,227587,227588,625,<right>,<right>,1,1
205-1-3,T,48,1,U,2,228229,2000,230234,230439,230439,785,<up>,<up>,1,1
205-1-3,T,49,1,R,2,231238,2000,233243,233450,233450,740,<right>,<right>,1,1
205-1-3,T,50,-1,L,2,234202,2000,236208,236415,236415,548,<left>,<left>,1,1
