subnum,block,trial,direction,stim,offset,fixationstart,delaytime,promptstart,arrowstart,maskstart,rt,corresp,resp,corr,bivalentcorr
202-1-3,P,0,1,L,1,3652,3500,7157,7662,7662,1023,<left>,<left>,1,1
202-1-3,P,0,-1,D,2,8709,2750,11464,11972,11972,642,<down>,<down>,1,1
202-1-3,P,0,-1,D,2,12642,3500,16147,16653,16654,608,<down>,<down>,1,1
202-1-3,P,0,-1,D,2,17289,3500,20796,21302,21302,478,<down>,<down>,1,1
202-1-3,P,0,1,D,2,21803,1750,23559,24065,24066,580,<down>,<down>,1,1
202-1-3,P,0,1,L,2,24669,2250,26924,27431,27431,631,<left>,<left>,1,1
202-1-3,P,0,-1,L,1,28090,2750,30844,31349,31350,464,<left>,<left>,1,1
202-1-3,P,0,1,L,2,31838,2500,34344,34851,34851,525,<left>,<left>,1,1
202-1-3,P,0,1,D,1,37314,2750,40070,40276,40277,506,<down>,<down>,1,1
202-1-3,P,0,-1,L,2,40811,3250,44067,44273,44273,524,<left>,<left>,1,1
202-1-3,P,0,1,R,1,44822,2000,46826,47033,47033,552,<right>,<right>,1,1
202-1-3,P,0,1,D,2,47607,2250,49863,50070,50071,524,<down>,<down>,1,1
202-1-3,P,0,-1,U,1,50619,3000,53624,53830,53830,586,<up>,<up>,1,1
202-1-3,P,0,1,L,2,54443,2250,56698,56905,56905,457,<left>,<right>,0,1
202-1-3,P,0,-1,D,1,57384,3250,60640,60846,60847,592,<down>,<down>,1,1
202-1-3,P,0,-1,L,2,61462,3500,64968,65174,65174,1103,<left>,<right>,0,1
202-1-3,T,1,1,L,1,69212,3500,72718,72924,72925,1040,<left>,<left>,1,1
202-1-3,T,2,-1,R,2,73992,2750,76746,76953,76953,535,<right>,<left>,0,1
202-1-3,T,3,1,R,1,77511,3500,81017,81223,81223,467,<right>,<right>,1,1
202-1-3,T,4,-1,D,2,81715,3500,85221,85427,85427,606,<down>,<down>,1,1
202-1-3,T,5,-1,U,2,86059,3000,89065,89271,89272,608,<up>,<up>,1,1
202-1-3,T,6,-1,L,2,89905,2750,92660,92866,92867,914,<left>,<right>,0,1
202-1-3,T,7,1,U,1,93803,2250,96058,96264,96264,625,<up>,<up>,1,1
202-1-3,T,8,1,D,1,96914,2000,98920,99127,99128,521,<down>,<down>,1,1
202-1-3,T,9,1,D,2,99676,2000,101681,101887,101887,835,<down>,<up>,0,1
202-1-3,T,10,1,D,2,102745,3000,105751,105957,105957,692,<down>,<down>,1,1
202-1-3,T,11,1,R,1,106673,2500,109178,109385,109386,498,<right>,<right>,1,1
202-1-3,T,12,1,L,1,109906,1500,111412,111619,111619,518,<left>,<left>,1,1
202-1-3,T,13,1,L,1,112162,3500,115667,115873,115873,446,<left>,<right>,0,1
202-1-3,T,14,1,R,2,116342,2500,118846,119054,119054,642,<right>,<right>,1,1
202-1-3,T,15,1,D,2,119721,3250,122977,123183,123183,571,<down>,<down>,1,1
202-1-3,T,16,1,L,2,123780,2500,126285,126492,126492,499,<left>,<left>,1,1
202-1-3,T,17,1,D,2,127013,2750,129769,129976,129976,514,<down>,<down>,1,1
202-1-3,T,18,1,L,2,130513,2500,133018,133225,133225,501,<left>,<left>,1,1
202-1-3,T,19,-1,D,1,133754,2250,136009,136216,136216,566,<down>,<down>,1,1
202-1-3,T,20,1,L,1,136806,3500,140311,140516,140517,526,<left>,<left>,1,1
202-1-3,T,21,-1,U,2,141065,1500,142569,142774,142775,949,<up>,<down>,0,1
202-1-3,T,22,1,R,1,143746,2750,146501,146707,146708,642,<right>,<right>,1,1
202-1-3,T,23,-1,D,1,147373,3500,150878,151084,151084,584,<down>,<down>,1,1
202-1-3,T,24,-1,D,2,151691,1750,153447,153653,153654,525,<down>,<down>,1,1
202-1-3,T,25,1,R,1,154203,2000,156207,156414,156415,559,<right>,<right>,1,1
202-1-3,T,26,1,R,2,156997,2000,159002,159209,159209,624,<right>,<right>,1,1
202-1-3,T,27,-1,L,2,159857,2500,162362,162569,162569,544,<left>,<right>,0,1
202-1-3,T,28,1,D,1,163138,3250,166392,166598,166599,511,<down>,<down>,1,1
202-1-3,T,29,1,U,1,167134,1750,168890,169097,169097,582,<up>,<up>,1,1
202-1-3,T,30,-1,R,1,169702,3250,172958,173164,173165,488,<right>,<right>,1,1
202-1-3,T,31,1,U,2,173676,2750,176431,176638,176638,837,<up>,<up>,1,1
202-1-3,T,32,-1,D,2,177501,3250,180757,180963,180963,719,<down>,<down>,1,1
202-1-3,T,33,-1,L,1,181704,2000,183709,183915,183916,560,<left>,<left>,1,1
202-1-3,T,34,1,R,1,184498,2750,187254,187460,187461,399,<right>,<right>,1,1
202-1-3,T,35,1,U,2,187883,1500,189389,189594,189595,671,<up>,<up>,1,1
202-1-3,T,36,1,D,1,190293,1500,191799,192006,192006,485,<down>,<down>,1,1
202-1-3,T,37,1,R,1,192517,2750,195272,195477,195478,442,<right>,<right>,1,1
202-1-3,T,38,1,U,1,195946,3500,199452,199659,199659,485,<up>,<up>,1,1
202-1-3,T,39,1,U,1,200166,2250,202422,202629,202629,474,<up>,<up>,1,1
202-1-3,T,40,-1,U,1,203127,1750,204882,205089,205089,497,<up>,<up>,1,1
202-1-3,T,41,-1,R,2,205610,2000,207614,207819,207820,843,<right>,<left>,0,1
202-1-3,T,42,-1,U,1,208686,3250,211941,212147,212148,481,<up>,<up>,1,1
202-1-3,T,43,1,L,2,212652,2500,215158,215365,215365,601,<left>,<left>,1,1
202-1-3,T,44,-1,U,2,215991,2500,218496,218703,218703,657,<up>,<up>,1,1
202-1-3,T,45,1,D,2,219387,1500,220891,221096,221097,936,<down>,<down>,1,1
202-1-3,T,46,-1,U,2,222056,3500,225560,225766,225767,550,<up>,<up>,1,1
202-1-3,T,47,1,R,1,226348,3000,229354,229560,229560,489,<right>,<right>,1,1
202-1-3,T,48,1,D,1,230074,3250,233331,233537,233537,543,<down>,<down>,1,1
202-1-3,T,49,1,U,1,234105,3000,237110,237317,237317,488,<up>,<up>,1,1
202-1-3,T,50,1,L,2,237831,1500,239335,239540,239541,676,<left>,<left>,1,1
