subnum,stimtype,block,trialtype,trial,condition,stim,dim1,dim2,time0,resp1,rt1,corr1,resp2,rt2,corr2,tooslow
201-2-4,4,1,PRACTICE,-25,1,4,0,0,8902,2,409,1,NA,0,0,0
201-2-4,4,1,PRACTICE,-24,1,2,0,1,10167,2,394,1,NA,0,0,0
201-2-4,4,1,PRACTICE,-23,1,3,1,0,11709,1,322,1,NA,0,0,0
201-2-4,4,1,PRACTICE,-22,1,1,1,1,12904,1,394,1,NA,0,0,0
201-2-4,4,1,PRACTICE,-21,1,4,0,0,14276,2,340,1,NA,0,0,0
201-2-4,4,1,PRACTICE,-20,1,1,1,1,15916,1,326,1,NA,0,0,0
201-2-4,4,1,PRACTICE,-19,1,3,1,0,17537,1,380,1,NA,0,0,0
201-2-4,4,1,PRACTICE,-18,1,2,0,1,18979,2,380,1,NA,0,0,0
201-2-4,4,1,TEST,1,1,4,0,0,20602,2,391,1,NA,0,0,0
201-2-4,4,1,TEST,2,1,2,0,1,22289,2,350,1,NA,0,0,0
201-2-4,4,1,TEST,3,1,3,1,0,23617,1,504,1,NA,0,0,0
201-2-4,4,1,TEST,4,1,1,1,1,25013,1,408,1,NA,0,0,0
201-2-4,4,1,TEST,5,1,4,0,0,26475,2,400,1,NA,0,0,0
201-2-4,4,1,TEST,6,1,1,1,1,28059,1,356,1,NA,0,0,0
201-2-4,4,1,TEST,7,1,2,0,1,29616,2,375,1,NA,0,0,0
201-2-4,4,1,TEST,8,1,3,1,0,30910,1,360,1,NA,0,0,0
201-2-4,4,1,TEST,9,1,2,0,1,32565,2,320,1,NA,0,0,0
201-2-4,4,1,TEST,10,1,1,1,1,33744,1,361,1,NA,0,0,0
201-2-4,4,1,TEST,11,1,4,0,0,35076,2,371,1,NA,0,0,0
201-2-4,4,1,TEST,12,1,3,1,0,36308,1,325,1,NA,0,0,0
201-2-4,4,1,TEST,13,1,2,0,1,37903,2,299,1,NA,0,0,0
201-2-4,4,1,TEST,14,1,1,1,1,39467,1,254,1,NA,0,0,0
201-2-4,4,1,TEST,15,1,4,0,0,40731,2,278,1,NA,0,0,0
201-2-4,4,1,TEST,16,1,3,1,0,42119,1,282,1,NA,0,0,0
201-2-4,4,1,TEST,17,1,2,0,1,43337,2,280,1,NA,0,0,0
201-2-4,4,1,TEST,18,1,4,0,0,44502,1,280,0,NA,0,0,0
201-2-4,4,1,TEST,19,1,1,1,1,46459,1,364,1,NA,0,0,0
201-2-4,4,1,TEST,20,1,3,1,0,47785,1,480,1,NA,0,0,0
201-2-4,4,1,TEST,21,1,2,0,1,49340,2,384,1,NA,0,0,0
201-2-4,4,1,TEST,22,1,3,1,0,50880,1,346,1,NA,0,0,0
201-2-4,4,1,TEST,23,1,4,0,0,52202,2,318,1,NA,0,0,0
201-2-4,4,1,TEST,24,1,1,1,1,53678,1,298,1,NA,0,0,0
201-2-4,4,1,TEST,25,1,2,0,1,54898,2,297,1,NA,0,0,0
201-2-4,4,2,PRACTICE,-25,2,3,1,0,60494,NA,0,0,0,640,1,0
201-2-4,4,2,PRACTICE,-24,2,4,0,0,62444,NA,0,0,0,391,1,0
201-2-4,4,2,PRACTICE,-23,2,2,0,1,63884,NA,0,0,9,550,1,0
201-2-4,4,2,PRACTICE,-22,2,1,1,1,65318,NA,0,0,9,400,1,0
201-2-4,4,2,PRACTICE,-21,2,1,1,1,66948,NA,0,0,9,357,1,0
201-2-4,4,2,PRACTICE,-20,2,3,1,0,68199,NA,0,0,0,608,1,0
201-2-4,4,2,PRACTICE,-19,2,2,0,1,70019,NA,0,0,9,387,1,0
201-2-4,4,2,PRACTICE,-18,2,4,0,0,71247,NA,0,0,0,435,1,0
201-2-4,4,2,TEST,1,2,2,0,1,72658,NA,0,0,9,330,1,0
201-2-4,4,2,TEST,2,2,1,1,1,73916,NA,0,0,9,408,1,0
201-2-4,4,2,TEST,3,2,3,1,0,75251,NA,0,0,0,400,1,0
201-2-4,4,2,TEST,4,2,4,0,0,76520,NA,0,0,0,430,1,0
201-2-4,4,2,TEST,5,2,2,0,1,77902,NA,0,0,9,368,1,0
201-2-4,4,2,TEST,6,2,1,1,1,79301,NA,0,0,9,304,1,0
201-2-4,4,2,TEST,7,2,4,0,0,80531,NA,0,0,0,381,1,0
201-2-4,4,2,TEST,8,2,3,1,0,82220,NA,0,0,0,307,1,0
201-2-4,4,2,TEST,9,2,2,0,1,83365,NA,0,0,9,646,1,0
201-2-4,4,2,TEST,10,2,1,1,1,85306,NA,0,0,9,292,1,0
201-2-4,4,2,TEST,11,2,4,0,0,86861,NA,0,0,0,432,1,0
201-2-4,4,2,TEST,12,2,3,1,0,88474,NA,0,0,0,396,1,0
201-2-4,4,2,TEST,13,2,2,0,1,90090,NA,0,0,9,422,1,0
201-2-4,4,2,TEST,14,2,3,1,0,91842,NA,0,0,0,376,1,0
201-2-4,4,2,TEST,15,2,1,1,1,93535,NA,0,0,9,460,1,0
201-2-4,4,2,TEST,16,2,4,0,0,95065,NA,0,0,0,381,1,0
201-2-4,4,2,TEST,17,2,1,1,1,96359,NA,0,0,9,404,1,0
201-2-4,4,2,TEST,18,2,4,0,0,97829,NA,0,0,0,357,1,0
201-2-4,4,2,TEST,19,2,3,1,0,99029,NA,0,0,0,407,1,0
201-2-4,4,2,TEST,20,2,2,0,1,100670,NA,0,0,9,416,1,0
201-2-4,4,2,TEST,21,2,1,1,1,101947,NA,0,0,9,432,1,0
201-2-4,4,2,TEST,22,2,3,1,0,103292,NA,0,0,0,406,1,0
201-2-4,4,2,TEST,23,2,4,0,0,104849,NA,0,0,0,413,1,0
201-2-4,4,2,TEST,24,2,2,0,1,106155,NA,0,0,9,412,1,0
201-2-4,4,2,TEST,25,2,1,1,1,107737,NA,0,0,9,286,1,0
201-2-4,4,3,PRACTICE,-25,3,1,1,1,111751,1,542,1,9,550,1,0
201-2-4,4,3,PRACTICE,-24,3,3,1,0,113207,2,442,0,0,438,1,0
201-2-4,4,3,PRACTICE,-23,3,2,0,1,115296,2,719,1,9,711,1,0
201-2-4,4,3,PRACTICE,-22,3,4,0,0,116996,2,469,1,0,477,1,0
201-2-4,4,3,PRACTICE,-21,3,1,1,1,118426,1,383,1,9,387,1,0
201-2-4,4,3,PRACTICE,-20,3,2,0,1,119785,2,505,1,9,515,1,0
201-2-4,4,3,PRACTICE,-19,3,3,1,0,121610,1,410,1,0,415,1,0
201-2-4,4,3,PRACTICE,-18,3,4,0,0,123305,2,383,1,9,361,0,0
201-2-4,4,3,TEST,1,3,1,1,1,125322,1,372,1,9,382,1,0
201-2-4,4,3,TEST,2,3,2,0,1,127038,2,504,1,9,518,1,0
201-2-4,4,3,TEST,3,3,4,0,0,128643,2,475,1,0,492,1,0
201-2-4,4,3,TEST,4,3,3,1,0,130215,1,444,1,9,454,0,0
201-2-4,4,3,TEST,5,3,2,0,1,132299,2,477,1,9,483,1,0
201-2-4,4,3,TEST,6,3,3,1,0,134091,1,435,1,0,451,1,0
201-2-4,4,3,TEST,7,3,4,0,0,135865,2,386,1,0,390,1,0
201-2-4,4,3,TEST,8,3,1,1,1,137532,1,354,1,9,364,1,0
201-2-4,4,3,TEST,9,3,3,1,0,139072,1,511,1,0,515,1,0
201-2-4,4,3,TEST,10,3,2,0,1,140760,2,406,1,9,416,1,0
201-2-4,4,3,TEST,11,3,4,0,0,142125,2,440,1,0,451,1,0
201-2-4,4,3,TEST,12,3,1,1,1,143593,1,332,1,9,356,1,0
201-2-4,4,3,TEST,13,3,3,1,0,145236,1,408,1,0,404,1,0
201-2-4,4,3,TEST,14,3,2,0,1,146927,2,362,1,9,370,1,0
201-2-4,4,3,TEST,15,3,4,0,0,148279,2,429,1,0,459,1,0
201-2-4,4,3,TEST,16,3,1,1,1,149978,1,373,1,9,391,1,0
201-2-4,4,3,TEST,17,3,3,1,0,151330,1,516,1,0,520,1,0
201-2-4,4,3,TEST,18,3,1,1,1,152850,1,418,1,9,434,1,0
201-2-4,4,3,TEST,19,3,4,0,0,154355,2,407,1,0,412,1,0
201-2-4,4,3,TEST,20,3,2,0,1,155850,1,365,0,9,397,1,0
201-2-4,4,3,TEST,21,3,1,1,1,157949,1,504,1,9,934,1,0
201-2-4,4,3,TEST,22,3,3,1,0,160001,1,473,1,0,485,1,0
201-2-4,4,3,TEST,23,3,4,0,0,161451,2,608,1,0,617,1,0
201-2-4,4,3,TEST,24,3,2,0,1,163123,2,438,1,9,457,1,0
201-2-4,4,3,TEST,25,3,1,1,1,164538,1,448,1,9,454,1,0
