subnum,stimtype,block,trialtype,trial,condition,stim,dim1,dim2,time0,resp1,rt1,corr1,resp2,rt2,corr2,tooslow
107-1-1,4,1,PRACTICE,-25,1,4,0,0,67036,1,3493,0,NA,0,0,0
107-1-1,4,1,PRACTICE,-24,1,3,1,0,71888,1,2068,1,NA,0,0,0
107-1-1,4,1,PRACTICE,-23,1,1,1,1,75286,1,1320,1,NA,0,0,0
107-1-1,4,1,PRACTICE,-22,1,2,0,1,77627,2,492,1,NA,0,0,0
107-1-1,4,1,PRACTICE,-21,1,2,0,1,79386,2,670,1,NA,0,0,0
107-1-1,4,1,PRACTICE,-20,1,1,1,1,80918,1,424,1,NA,0,0,0
107-1-1,4,1,PRACTICE,-19,1,4,0,0,82669,2,288,1,NA,0,0,0
107-1-1,4,1,PRACTICE,-18,1,3,1,0,84108,1,282,1,NA,0,0,0
107-1-1,4,1,TEST,1,1,3,1,0,85294,1,580,1,NA,0,0,0
107-1-1,4,1,TEST,2,1,4,0,0,86970,2,543,1,NA,0,0,0
107-1-1,4,1,TEST,3,1,1,1,1,88539,1,452,1,NA,0,0,0
107-1-1,4,1,TEST,4,1,2,0,1,90000,2,748,1,NA,0,0,0
107-1-1,4,1,TEST,5,1,4,0,0,91996,2,624,1,NA,0,0,0
107-1-1,4,1,TEST,6,1,3,1,0,93725,1,576,1,NA,0,0,0
107-1-1,4,1,TEST,7,1,2,0,1,95448,2,460,1,NA,0,0,0
107-1-1,4,1,TEST,8,1,1,1,1,96817,1,380,1,NA,0,0,0
107-1-1,4,1,TEST,9,1,4,0,0,98261,2,344,1,NA,0,0,0
107-1-1,4,1,TEST,10,1,2,0,1,99657,2,516,1,NA,0,0,0
107-1-1,4,1,TEST,11,1,3,1,0,101193,1,454,1,NA,0,0,0
107-1-1,4,1,TEST,12,1,1,1,1,102877,1,415,1,NA,0,0,0
107-1-1,4,1,TEST,13,1,3,1,0,104229,1,517,1,NA,0,0,0
107-1-1,4,1,TEST,14,1,2,0,1,105740,2,664,1,NA,0,0,0
107-1-1,4,1,TEST,15,1,4,0,0,107376,2,533,1,NA,0,0,0
107-1-1,4,1,TEST,16,1,1,1,1,109196,1,442,1,NA,0,0,0
107-1-1,4,1,TEST,17,1,3,1,0,110915,1,376,1,NA,0,0,0
107-1-1,4,1,TEST,18,1,4,0,0,112531,2,516,1,NA,0,0,0
107-1-1,4,1,TEST,19,1,2,0,1,114120,2,578,1,NA,0,0,0
107-1-1,4,1,TEST,20,1,1,1,1,115826,1,492,1,NA,0,0,0
107-1-1,4,1,TEST,21,1,3,1,0,117183,1,696,1,NA,0,0,0
107-1-1,4,1,TEST,22,1,4,0,0,118809,2,619,1,NA,0,0,0
107-1-1,4,1,TEST,23,1,2,0,1,120618,2,768,1,NA,0,0,0
107-1-1,4,1,TEST,24,1,1,1,1,122383,1,533,1,NA,0,0,0
107-1-1,4,1,TEST,25,1,2,0,1,124174,2,417,1,NA,0,0,0
107-1-1,4,2,PRACTICE,-25,2,3,1,0,141247,NA,0,0,0,802,1,0
107-1-1,4,2,PRACTICE,-24,2,4,0,0,143046,NA,0,0,0,508,1,0
107-1-1,4,2,PRACTICE,-23,2,1,1,1,144711,NA,0,0,9,358,1,0
107-1-1,4,2,PRACTICE,-22,2,2,0,1,146217,NA,0,0,9,440,1,0
107-1-1,4,2,PRACTICE,-21,2,2,0,1,147978,NA,0,0,9,400,1,0
107-1-1,4,2,PRACTICE,-20,2,1,1,1,149286,NA,0,0,9,397,1,0
107-1-1,4,2,PRACTICE,-19,2,3,1,0,150691,NA,0,0,0,449,1,0
107-1-1,4,2,PRACTICE,-18,2,4,0,0,151987,NA,0,0,0,375,1,0
107-1-1,4,2,TEST,1,2,1,1,1,153350,NA,0,0,9,562,1,0
107-1-1,4,2,TEST,2,2,4,0,0,155052,NA,0,0,0,359,1,0
107-1-1,4,2,TEST,3,2,2,0,1,156509,NA,0,0,9,322,1,0
107-1-1,4,2,TEST,4,2,3,1,0,158151,NA,0,0,0,344,1,0
107-1-1,4,2,TEST,5,2,4,0,0,159612,NA,0,0,0,336,1,0
107-1-1,4,2,TEST,6,2,1,1,1,161270,NA,0,0,9,524,1,0
107-1-1,4,2,TEST,7,2,3,1,0,162997,NA,0,0,0,338,1,0
107-1-1,4,2,TEST,8,2,2,0,1,164314,NA,0,0,9,449,1,0
107-1-1,4,2,TEST,9,2,3,1,0,165811,NA,0,0,0,313,1,0
107-1-1,4,2,TEST,10,2,2,0,1,167120,NA,0,0,9,309,1,0
107-1-1,4,2,TEST,11,2,1,1,1,168719,NA,0,0,9,557,1,0
107-1-1,4,2,TEST,12,2,4,0,0,170600,NA,0,0,0,363,1,0
107-1-1,4,2,TEST,13,2,1,1,1,172117,NA,0,0,9,334,1,0
107-1-1,4,2,TEST,14,2,3,1,0,173527,NA,0,0,0,324,1,0
107-1-1,4,2,TEST,15,2,2,0,1,175087,NA,0,0,9,306,1,0
107-1-1,4,2,TEST,16,2,4,0,0,176676,NA,0,0,0,294,1,0
107-1-1,4,2,TEST,17,2,3,1,0,177949,NA,0,0,9,372,0,0
107-1-1,4,2,TEST,18,2,2,0,1,180143,NA,0,0,9,692,1,0
107-1-1,4,2,TEST,19,2,1,1,1,181693,NA,0,0,9,542,1,0
107-1-1,4,2,TEST,20,2,4,0,0,183424,NA,0,0,0,528,1,0
107-1-1,4,2,TEST,21,2,1,1,1,185213,NA,0,0,9,422,1,0
107-1-1,4,2,TEST,22,2,3,1,0,186656,NA,0,0,0,390,1,0
107-1-1,4,2,TEST,23,2,2,0,1,188140,NA,0,0,9,304,1,0
107-1-1,4,2,TEST,24,2,4,0,0,189693,NA,0,0,0,362,1,0
107-1-1,4,2,TEST,25,2,1,1,1,191202,NA,0,0,9,445,1,0
107-1-1,4,3,PRACTICE,-25,3,2,0,1,227662,2,1150,1,9,1716,1,0
107-1-1,4,3,PRACTICE,-24,3,4,0,0,230676,2,1668,1,0,1820,1,0
107-1-1,4,3,PRACTICE,-23,3,1,1,1,233536,1,801,1,9,819,1,0
107-1-1,4,3,PRACTICE,-22,3,3,1,0,235359,1,1648,1,0,1916,1,0
107-1-1,4,3,PRACTICE,-21,3,4,0,0,238489,2,1143,1,0,1568,1,0
107-1-1,4,3,PRACTICE,-20,3,1,1,1,240914,1,792,1,9,938,1,0
107-1-1,4,3,PRACTICE,-19,3,2,0,1,242949,2,1408,1,9,1541,1,0
107-1-1,4,3,PRACTICE,-18,3,3,1,0,245579,1,814,1,0,818,1,0
107-1-1,4,3,TEST,1,3,2,0,1,247598,2,648,1,9,644,1,0
107-1-1,4,3,TEST,2,3,3,1,0,249571,1,608,1,0,618,1,0
107-1-1,4,3,TEST,3,3,4,0,0,251293,2,409,1,9,417,0,0
107-1-1,4,3,TEST,4,3,1,1,1,253091,1,881,1,9,965,1,0
107-1-1,4,3,TEST,5,3,4,0,0,255316,2,860,1,0,864,1,0
107-1-1,4,3,TEST,6,3,3,1,0,257214,1,558,1,9,572,0,0
107-1-1,4,3,TEST,7,3,1,1,1,259328,1,797,1,9,807,1,0
107-1-1,4,3,TEST,8,3,2,0,1,261318,2,881,1,9,1147,1,0
107-1-1,4,3,TEST,9,3,3,1,0,263626,1,828,1,0,1358,1,0
107-1-1,4,3,TEST,10,3,1,1,1,266090,1,1064,1,9,1080,1,0
107-1-1,4,3,TEST,11,3,4,0,0,268278,2,868,1,0,872,1,0
107-1-1,4,3,TEST,12,3,2,0,1,270126,2,1237,1,9,1489,1,0
107-1-1,4,3,TEST,13,3,1,1,1,272459,1,797,1,9,954,1,0
107-1-1,4,3,TEST,14,3,4,0,0,274569,2,849,1,0,842,1,0
107-1-1,4,3,TEST,15,3,3,1,0,276739,1,726,1,0,733,1,0
107-1-1,4,3,TEST,16,3,2,0,1,278773,2,626,1,9,724,1,0
107-1-1,4,3,TEST,17,3,4,0,0,280766,2,1073,1,0,1068,1,0
107-1-1,4,3,TEST,18,3,1,1,1,282685,1,816,1,9,830,1,0
107-1-1,4,3,TEST,19,3,3,1,0,284791,1,927,1,0,1133,1,0
107-1-1,4,3,TEST,20,3,2,0,1,286860,2,676,1,9,692,1,0
107-1-1,4,3,TEST,21,3,1,1,1,288654,1,889,1,9,885,1,0
107-1-1,4,3,TEST,22,3,3,1,0,290501,1,1204,1,0,1236,1,0
107-1-1,4,3,TEST,23,3,4,0,0,292896,2,742,1,0,765,1,0
107-1-1,4,3,TEST,24,3,2,0,1,294650,2,830,1,9,836,1,0
107-1-1,4,3,TEST,25,3,3,1,0,296752,1,544,1,0,580,1,0
